timestamp,vel_x,vel_y,vel_z,acc_x,acc_y,acc_z,roll,pitch,yaw,rc0,rc1,rc2,rc3, vol, cur,power
11.4629380703,-0.0150468126,0.0188925527,-0.0097614788,0,-0.4276516438,11.6641778946,-0.0667529299,-0.0586083965,-1.7205081474,1489,1487,1632,1517,16.3349990845,14.013671875,228.913317248
11.5654149055,-0.013444799,0.0315333903,0.020042425,0,-1.3654335737,9.3461637497,-0.0644456648,-0.0593305498,-1.7207945348,1489,1486,1645,1517,16.3349990845,15.185546875,248.0558943
11.6637270451,0.0090788016,0.0366675928,0.2179325074,0,-1.8061087132,12.1494836807,-0.0456875691,-0.0516783797,-1.717306841,1489,1487,1660,1517,16.2549991608,18.115234375,294.463119563
11.7662329674,0.02752514,0.0353152864,0.512280941,0,0.793944478,11.0360774994,-0.0272710496,-0.0454389165,-1.7131673805,1489,1487,1661,1517,16.2549991608,19.580078125,318.27415349
11.864248991,0.0194192585,0.0238480289,0.9017754793,0,-2.3138129711,13.4062643051,-0.0149631516,-0.0355855637,-1.7059385829,1488,1489,1660,1517,16.0949993134,19.482421875,313.569566701
11.9665300846,-0.0017105521,-0.005492426,1.3415244818,0,0.4151077271,12.7384347916,-0.0106109243,-0.020482458,-1.6959696822,1489,1487,1661,1517,16.0949993134,10.888671875,175.253166351
12.0651459694,-0.0075220466,-0.044322148,1.4227479696,0,-2.0333282948,12.1174354553,-0.0116840845,-0.012637066,-1.6903464757,1489,1486,1661,1517,16.0949993134,13.330078125,214.547598269
12.1670939922,-0.0207533184,-0.0869724229,1.4374644756,0,-0.0567788295,10.6446990967,-0.0138948159,-0.0098602129,-1.6873248679,1489,1487,1660,1517,16.0949993134,12.060546875,194.114493672
12.2654938698,-0.0134307919,-0.1481768936,1.4150378704,0,0.1962854266,10.5253038406,-0.0098494955,-0.0285303663,-1.6824892051,1489,1486,1660,1517,15.9659996033,14.599609375,233.097357489
12.3680849075,-0.0077872407,-0.1723529547,1.4095278978,0,0.0403903164,10.613275528,-0.008087004,-0.0480687848,-1.6826403692,1489,1486,1660,1517,15.9010000229,13.818359375,219.725732738
12.4665379524,-0.0013228892,-0.1739632636,1.4196002483,0,0.0507952496,9.4050989151,-0.00303665,-0.0548417547,-1.6844302772,1488,1487,1660,1519,15.9010000229,12.451171875,197.986084269
12.5684640408,0.0063892286,-0.1790819019,1.4306288958,0,-1.3029165268,7.3510270119,0.0010600047,-0.0572620221,-1.687567394,1489,1486,1660,1517,15.9010000229,12.841796875,204.197412403
12.66690588,0.0017617461,-0.1794043481,1.4148899317,0,-1.8591277599,9.5077991486,0.0108911269,-0.0638264593,-1.6935836176,1488,1487,1658,1519,15.8319997787,13.76953125,217.999215703
12.7692399025,-0.0087274686,-0.1686228365,1.4187643528,0,-0.8110390306,11.4560203552,0.0133851833,-0.0689407381,-1.6953966873,1489,1486,1660,1517,15.8319997787,13.525390625,214.133981382
12.8680598736,-0.0213652458,-0.1549307257,1.4275336266,0,-0.8607310653,10.2303552628,0.0148844378,-0.0724722674,-1.6963618906,1489,1487,1659,1517,15.8319997787,14.599609375,231.141012395
12.9705018997,-0.0546408594,-0.1188406125,1.42549932,0,0.5545061827,9.7499666214,0.0122261726,-0.0758698972,-1.6955830331,1488,1489,1658,1519,15.7810001373,14.0625,221.920314431
13.0686640739,-0.0794096366,-0.0895923153,1.3973788023,0,0.2589346766,7.7457046509,0.0050139522,-0.0736728568,-1.6935948072,1489,1487,1658,1517,15.7810001373,15.576171875,245.807570498
13.171626091,-0.0933391452,-0.0742810965,1.3944884539,0,0.5266289115,11.2952671051,0.0030851344,-0.0698822916,-1.6928365302,1489,1487,1657,1519,15.7810001373,14.013671875,221.149757784
13.2696499825,-0.112037383,-0.0639795363,1.3863946199,0,-0.3669029474,12.1101427078,-0.0003737331,-0.0657021222,-1.6922874337,1488,1487,1656,1520,15.7329998016,12.060546875,189.748581592
13.3720300198,-0.1279825717,-0.0524228923,1.3852630854,0,-2.1483201981,8.4527139664,-0.0195728349,-0.0600871517,-1.6953146315,1489,1487,1656,1520,15.7329998016,15.234375,239.682418853
13.4700648785,-0.1290023476,-0.0515591837,1.3726696968,0,0.0570749938,9.3578357697,-0.0287024755,-0.0603508536,-1.6972830849,1489,1486,1655,1518,15.7049999237,12.5,196.312499046
13.5722160339,-0.0990286991,-0.044130832,1.3693153858,0,-1.910392642,8.0148954392,-0.0350458974,-0.0624419848,-1.7007489314,1489,1486,1655,1518,15.7049999237,13.916015625,218.551024329
13.670912981,-0.0990286991,-0.044130832,1.3693153858,0,-0.3769179881,9.0432977676,-0.0350458974,-0.0624419848,-1.7007489314,1489,1487,1655,1518,15.7049999237,13.720703125,215.483641531
13.7732548714,-0.0661504492,-0.0509827323,1.3708139658,0,-0.9747129083,11.6943616867,-0.030919142,-0.0680688223,-1.7065658075,1488,1489,1655,1518,15.6689996719,13.427734375,210.399165517
13.8712038994,-0.0516198948,-0.0388659984,1.3820151091,0,-1.1063394547,11.6469335556,-0.0305428708,-0.0711684847,-1.708396952,1489,1486,1655,1518,15.6689996719,13.037109375,204.27846252
13.9735689163,-0.0242943615,-0.0319047868,1.3773915768,0,-1.0404086113,9.9256486893,-0.0342292118,-0.0730200342,-1.7114751742,1489,1486,1654,1518,15.6520004272,13.671875,213.992193341
14.0721170902,0.0157071203,-0.0307856314,1.3619155884,0,-0.0510589667,8.5761585236,-0.0323337151,-0.0837428717,-1.7083164512,1489,1486,1654,1521,15.6520004272,12.939453125,202.528325841
14.1747000217,0.0414333194,-0.0126444735,1.3515975475,0,-0.7966976166,10.5877599716,-0.0223369234,-0.0852306253,-1.704343498,1489,1487,1654,1521,15.6520004272,15.185546875,237.684186175
14.2729558945,0.0492763408,0.0163844246,1.3589382172,0,0.6743945479,12.3092727661,-0.0081771457,-0.0836788358,-1.700422703,1489,1486,1653,1520,15.6199998856,10.595703125,165.5048816
14.3747239113,0.0424571373,0.0599005744,1.1442745924,0,-0.7895156145,6.8687334061,0.0030663112,-0.0916482103,-1.6978509714,1489,1486,1631,1522,15.6199998856,6.982421875,109.065428888
14.4735639095,0.0371698849,0.0718956441,0.9715640545,0,-0.0157046244,7.7695188522,0.0085769463,-0.1013789377,-1.6968616111,1488,1487,1610,1522,15.6199998856,6.34765625,99.1503898986
14.5757079124,0.0371982604,0.1038871929,0.4775929153,0,0.5139802098,5.6682310104,0.0082733006,-0.1108224423,-1.6941545344,1489,1487,1574,1522,15.6560001373,5.224609375,81.7964850925
14.6743378639,0.0372303203,0.1266668588,0.1343464255,0,-0.5342342258,7.3686079979,0.0103276658,-0.1064569575,-1.6921212064,1489,1486,1552,1522,15.6560001373,12.158203125,190.348829795
14.77648592,0.0433053859,0.1717627496,-0.0849457607,0,-0.3065238595,7.0207133293,-0.0001910512,-0.0904063951,-1.6888064167,1489,1486,1521,1522,15.6929998398,13.818359375,216.851511458
14.874849081,0.0516443141,0.1893331259,-0.0804462805,0,-0.2258631736,13.1478567123,-0.0055115012,-0.0792590143,-1.6877605391,1488,1487,1517,1522,15.6929998398,13.96484375,219.150290731
14.9778409004,0.0570253767,0.2017319202,-0.072551094,0,-0.5712850094,9.9988842011,0.0004319867,-0.0620549116,-1.6867638152,1489,1486,1493,1522,15.6630001068,12.060546875,188.904346991
15.0754199028,0.0550717302,0.1986615658,-0.0643949434,0,0.5010359287,10.1425170898,0.002821123,-0.0515080745,-1.6865146125,1489,1486,1492,1520,15.6630001068,11.865234375,185.845167283
15.1774969101,0.0452521667,0.1856511533,-0.0516467653,0,1.528935194,10.4272079468,0.0109906921,-0.0468787183,-1.6841170025,1488,1489,1493,1520,15.6630001068,14.013671875,219.496144075
15.2764999866,0.0311371908,0.1606304199,-0.0470209494,0,-2.3102388382,11.7356138229,0.0137793297,-0.0514380045,-1.6799539298,1489,1486,1493,1521,15.6339998245,12.451171875,194.661618909
15.3782730103,0.0207158588,0.1613183469,-0.0357007049,0,-0.4032945633,8.3836345673,0.0133862824,-0.0581047724,-1.6772785338,1489,1486,1493,1521,15.6339998245,14.0625,219.853122532
15.476680994,0.013494431,0.1487389803,-0.0378066711,0,1.4953573942,11.4506826401,0.0124317515,-0.0598286364,-1.6755584572,1489,1486,1493,1521,15.6059999466,14.2578125,222.507421114
15.5791060925,-0.0135264322,0.148422882,0.0161498636,0,-2.2497081757,8.3423891068,0.0161685137,-0.0701546594,-1.6756752527,1489,1487,1493,1521,15.6059999466,13.232421875,206.505175075
15.677341938,-0.0293199047,0.1620060056,0.0563881136,0,1.8684462309,10.8282403946,0.0124645701,-0.0747680775,-1.6828745204,1489,1486,1493,1521,15.6059999466,12.548828125,195.837011049
15.7797188759,-0.0410124175,0.1727186888,0.0846338198,0,-0.3116584122,8.0500831604,0.0090545482,-0.0688912221,-1.6891088392,1488,1489,1493,1521,15.5819997787,11.474609375,178.797360742
15.8785851002,-0.0417929217,0.1680779755,0.0862368792,0,-0.6003798246,10.7557039261,0.0076941519,-0.0671020314,-1.6931451825,1489,1486,1493,1521,15.5819997787,11.865234375,184.884079406
15.9804739952,-0.0396939591,0.1871803105,0.1083477214,0,-1.7120968103,10.9772853851,0.0032224087,-0.070515919,-1.7052267751,1489,1486,1493,1521,15.5819997787,13.76953125,214.556832891
16.0788810253,-0.0369660892,0.2072789967,0.1285156757,0,1.6221702099,8.5362091065,0.0028406782,-0.0729546595,-1.7129500471,1488,1487,1493,1521,15.5640001297,13.28125,206.709376723
16.181374073,-0.0138050076,0.2337727845,0.1271616071,0,-0.1918876767,10.6955041885,0.003420477,-0.0748314963,-1.7259270395,1489,1487,1493,1521,15.5640001297,15.13671875,235.587892588
16.2795579433,-0.006249256,0.2418846786,0.1253166646,0,-1.2239282131,9.8048467636,0.0031420395,-0.0710341095,-1.7308588014,1488,1487,1493,1521,15.5509996414,12.744140625,198.18412629
16.3820159435,0.0046025049,0.2575942278,0.1210781932,0,-1.5118347406,11.3187713623,0.0124267764,-0.0649063401,-1.7355122051,1489,1487,1493,1521,15.5509996414,12.40234375,192.868843209
16.4802570343,0.0019002742,0.2554749548,0.1331222057,0,0.3724479377,12.6609611511,0.0174224881,-0.0581944289,-1.7370492147,1489,1486,1493,1518,15.5310001373,12.060546875,187.312355172
16.5835270882,0.0005379972,0.2529933155,0.1288169026,0,-1.3098512888,7.188398838,0.0236022436,-0.0594044146,-1.7358264995,1489,1486,1493,1521,15.5310001373,12.3046875,191.104103252
16.6811029911,-0.0027378364,0.2408452779,0.1161529198,0,0.3007054925,9.0789985657,0.0242628668,-0.058991033,-1.7340025042,1489,1486,1493,1521,15.5310001373,11.669921875,181.245558243
16.7833750248,-0.0287074726,0.2319844961,0.1214284077,0,0.4586504698,11.6337528229,0.0287609893,-0.0619629532,-1.7310155311,1488,1486,1493,1521,15.5150003433,13.232421875,205.301029934
16.8814198971,-0.0445456579,0.2287494838,0.1209954843,0,1.2168521881,8.2524700165,0.0250821489,-0.0708722645,-1.7303596749,1489,1486,1493,1521,15.5150003433,13.623046875,211.361576943
16.9840650558,-0.0704940781,0.2298303545,0.1082138345,0,2.1095049381,8.6452217102,0.0229716746,-0.0700231456,-1.7319379064,1488,1487,1493,1521,15.4960002899,11.71875,181.593753397
17.0823600292,-0.0771492943,0.2217262536,0.1052868515,0,0.0898491815,10.0089616776,0.0153111779,-0.0704999998,-1.7350432604,1488,1486,1493,1521,15.4960002899,11.42578125,177.053909563
17.1847829819,-0.0806876272,0.227643311,0.0990726352,0,-0.2479732335,6.9492874146,0.0132374094,-0.0772656292,-1.7396647887,1489,1486,1493,1521,15.4960002899,13.37890625,207.319535129
17.2833020687,-0.0714246333,0.2292461991,0.0864893496,0,-0.320468694,10.3390340805,0.0059943387,-0.0817338703,-1.7479232469,1489,1486,1493,1521,15.4919996262,12.5,193.649995327
17.3856890202,-0.0508450344,0.2390834838,0.0703433156,0,-0.116379112,9.0041675568,0.0001706569,-0.0835915168,-1.7556194198,1488,1486,1493,1521,15.4919996262,13.037109375,201.970893564
17.4841170311,-0.0381735899,0.2460108101,0.0643369332,0,1.6584724188,8.5899372101,0.0001625351,-0.0808426809,-1.755736501,1489,1486,1493,1521,15.4919996262,13.4765625,208.778901212
17.5866639614,-0.0273971297,0.2454631478,0.0687541515,0,1.2777459621,8.7730112076,0.0014716312,-0.0757298936,-1.7504717878,1489,1486,1493,1521,15.4870004654,12.01171875,186.025493871
17.6844439507,-0.0277438704,0.2502058148,0.0746361464,0,0.5029628277,9.4468812943,0.0072558299,-0.0725225179,-1.733642368,1489,1487,1493,1521,15.4870004654,11.279296875,174.682475952
17.7873299122,-0.0358240195,0.2391859591,0.0710014999,0,-1.5720721483,9.7963094711,0.0082918525,-0.0687864502,-1.7073034812,1489,1486,1493,1521,15.482000351,12.744140625,197.304789629
17.8855838776,-0.0389380902,0.2390544117,0.0768167526,0,-2.0411250591,8.1568403244,0.0043578045,-0.070034134,-1.6959615813,1489,1487,1493,1521,15.482000351,13.623046875,210.9120165
17.9874858856,-0.070917733,0.2249478996,0.0669942126,0,-1.7153400183,11.3922843933,0.0003645362,-0.0639022928,-1.6638114248,1489,1486,1493,1521,15.482000351,12.744140625,197.304789629
18.0899789333,-0.0835718364,0.2074923068,0.0766223818,0,1.6660124064,8.9229698181,-0.0059017343,-0.0602168146,-1.6436349189,1489,1486,1493,1521,15.4689998627,11.474609375,177.500730846
18.1882460117,-0.0933594778,0.1835663319,0.098235853,0,1.9722495079,11.3136491776,-0.0155653982,-0.0591230115,-1.618037683,1489,1492,1493,1521,15.4689998627,11.42578125,176.745408587
18.2905368805,-0.1002135351,0.1774769872,0.1027141884,0,-0.8429809809,12.5345573425,-0.0168433228,-0.0612073886,-1.6098428016,1489,1527,1493,1521,15.4589996338,12.255859375,189.46332559
18.3890659809,-0.1123440787,0.1386675537,0.0576880798,0,0.9309250116,8.5138502121,-0.0115566247,-0.0373728218,-1.5996720011,1489,1590,1492,1521,15.4589996338,14.55078125,224.940522015
18.4911608696,-0.1279985905,0.0299492553,0.1026910916,0,-0.6345965266,9.3740930557,0.0024708444,0.1012366317,-1.6008613151,1490,1591,1493,1521,15.4499998093,10.7421875,165.966794826
18.5898840427,-0.1736051589,-0.2373467237,0.1190067008,0,-1.0494599342,9.200884819,0.0054904467,0.2110516997,-1.6142815914,1490,1592,1493,1521,15.4499998093,11.572265625,178.791501699
18.6918900013,-0.190328151,-0.4588076472,0.0831800252,0,1.1019642353,10.6565113068,-0.0048620523,0.1936190984,-1.6279533834,1490,1590,1493,1521,15.4499998093,10.888671875,168.229978392
18.7910170555,-0.2013190538,-0.6279754043,0.0516340248,0,1.3054285049,7.7930417061,-0.0016467573,0.1418075091,-1.6428787151,1490,1591,1493,1521,15.4580001831,13.623046875,210.585061088
18.8924999237,-0.2202039659,-0.7524449825,0.0474503562,0,-0.751016438,9.0836181641,-0.0074083165,0.0846860783,-1.6644734704,1490,1588,1493,1521,15.4580001831,14.013671875,216.62334241
18.9910309315,-0.2244779468,-0.8533937335,0.0379730761,0,-0.1833880395,11.1308317184,-0.0068890379,0.0481454086,-1.682286021,1490,1590,1493,1521,15.4580001831,12.158203125,187.941506132
19.0932049751,-0.2340678722,-0.915595293,0.0367565341,0,-1.764154911,10.2109174728,-0.0081653552,0.0186265182,-1.7040926451,1490,1592,1493,1521,15.4549999237,12.353515625,190.923583042
19.1921770573,-0.2462054938,-0.9725056291,0.015234665,0,2.8326048851,10.333313942,-0.0094863753,0.0186752308,-1.721260397,1489,1593,1493,1521,15.4549999237,11.328125,175.076171011
19.2939040661,-0.2532994449,-0.992487967,-0.0191276837,0,1.4024633169,9.920753479,-0.0112057625,0.0079827433,-1.7311791124,1489,1593,1493,1521,15.4569997787,12.353515625,190.948288282
19.3922479153,-0.2729229629,-1.0198928118,-0.0208393317,0,0.7165561318,10.4355230331,-0.0140275963,0.0059567762,-1.7423314693,1490,1595,1493,1521,15.4569997787,12.548828125,193.967233552
19.4946250916,-0.285810709,-1.0388470888,-0.006994287,0,-0.4245546162,11.0347700119,-0.0145092039,0.0110773859,-1.7452196812,1489,1595,1493,1521,15.4499998093,11.865234375,183.317868831
19.5930149555,-0.2989123464,-1.0533512831,-0.0185566805,0,0.5402248502,9.6631631851,-0.0184999305,0.0015107856,-1.746060874,1489,1594,1493,1521,15.4499998093,11.669921875,180.300290743
19.6956350803,-0.2989701331,-1.0625208616,-0.0009484351,0,-0.8497881293,10.274725914,-0.0193096375,0.0004764964,-1.7449322976,1489,1595,1493,1521,15.4499998093,11.865234375,183.317868831
19.7938909531,-0.3007716835,-1.0868774653,-0.0232959054,0,-1.1680110693,5.6344590187,-0.0213227797,-0.000801882,-1.73872913,1489,1593,1493,1521,15.4490003586,10.595703125,163.693021378
19.8960289955,-0.2904188037,-1.085116148,-0.0311651323,0,-0.0745844916,11.7092170715,-0.020494512,-0.0080856788,-1.7302652801,1489,1595,1493,1521,15.4490003586,9.716796875,150.114798406
19.9943420887,-0.2896356881,-1.0945397615,-0.0616371669,0,-1.2975934744,9.3476209641,-0.0210054594,-0.0050964396,-1.7248486377,1489,1598,1493,1520,15.4490003586,9.86328125,152.377835568
20.0970630646,-0.2936272621,-1.1244065762,-0.0898455381,0,-1.1997513771,12.6242332458,-0.0194728593,0.0039977971,-1.7203095887,1489,1608,1493,1521,15.4530000687,11.865234375,183.353467612
20.195250988,-0.3063912988,-1.1869206429,-0.1092097834,0,0.1984375268,8.7051334381,-0.0225918866,0.0458908323,-1.7154826795,1489,1610,1493,1518,15.4530000687,11.376953125,175.808057422
20.2976870537,-0.30823192,-1.2160887718,-0.1379753649,0,0.3262500167,7.7198729515,-0.0272635494,0.0505440435,-1.7121901016,1489,1613,1493,1521,15.4530000687,12.3046875,190.144336782
20.3957638741,-0.300444603,-1.2933588028,-0.1719225347,0,0.3362405896,9.9639406204,-0.0283597282,0.0517116267,-1.7040644969,1489,1615,1493,1521,15.4569997787,12.744140625,196.986178821
20.4982640743,-0.2849632502,-1.3670104742,-0.1762765199,0,1.5218321085,11.6879281998,-0.0288651419,0.0498195284,-1.6927795768,1489,1615,1493,1521,15.4569997787,12.6953125,196.231442504
20.5966129303,-0.2820770741,-1.3890436888,-0.1756443083,0,1.4754755497,9.1729249954,-0.0306366587,0.0467097734,-1.6905583716,1489,1615,1493,1521,15.4619998932,13.427734375,207.619627472
20.6987640858,-0.258669287,-1.4347105026,-0.1832761914,0,0.7389987111,12.5166406631,-0.0293780241,0.0279608285,-1.6824331383,1489,1610,1493,1521,15.4619998932,12.5,193.274998665
20.7976529598,-0.2363414168,-1.4636361599,-0.1849677265,0,-1.9021245241,8.0427284241,-0.025995353,0.0023532981,-1.6745682752,1489,1610,1493,1521,15.4499998093,13.8671875,214.24804423
20.8994960785,-0.2175661325,-1.4766404629,-0.1938776076,0,-0.3515965343,5.105825901,-0.0242504478,-0.0073232035,-1.672035537,1489,1611,1493,1521,15.4499998093,13.720703125,211.984860664
20.9978029728,-0.1813652068,-1.491351366,-0.1798845381,0,2.7142248154,13.911482811,-0.015667032,-0.0072716453,-1.671509502,1489,1610,1493,1521,15.4499998093,10.791015625,166.721189348
21.1006538868,-0.160005182,-1.5079802275,-0.186038062,0,0.5295038223,8.4032564163,-0.0097898661,-0.0112496838,-1.6755397468,1489,1609,1493,1521,15.4449996948,12.841796875,198.341548815
21.1988129616,-0.1505688429,-1.51078403,-0.1795377582,0,-0.4001768827,10.171087265,-0.0023050212,-0.0184002557,-1.6825884935,1489,1610,1493,1518,15.4449996948,12.98828125,200.603999943
21.3009769917,-0.1378764808,-1.5194334984,-0.1440612674,0,-0.1170849055,11.0477628708,0.0025565521,-0.018414034,-1.6973307262,1489,1610,1493,1521,15.4329996109,11.279296875,174.073384283
21.3992888927,-0.1360823661,-1.5237571001,-0.1306146085,0,0.6717535257,11.8542518616,0.0030581589,-0.0200193111,-1.7079750432,1489,1608,1493,1521,15.4329996109,11.865234375,183.116157493
21.5018789768,-0.1362960637,-1.5258305073,-0.1096053123,0,-1.1241503954,8.2755270004,0.0044329476,-0.0175205657,-1.715209459,1489,1607,1493,1521,15.4329996109,11.474609375,177.08764202
21.600039959,-0.1374457777,-1.5306192637,-0.1086185724,0,-0.8537334204,9.5296297073,0.0091523514,-0.0311675174,-1.7321357562,1489,1607,1493,1521,15.4280004501,13.671875,210.929693654
21.7022030354,-0.1367698461,-1.5293153524,-0.0903437138,0,-2.1763103008,5.3958163261,0.0092767942,-0.0338610438,-1.7404654512,1489,1604,1493,1521,15.4280004501,10.595703125,163.470512582
21.8006539345,-0.1473914087,-1.5169804096,-0.1024643704,0,0.3843811452,10.1606388092,0.0124985226,-0.0417511939,-1.7503730882,1489,1604,1493,1521,15.4320001602,12.20703125,188.378908206
21.9031159878,-0.1530151516,-1.5035461187,-0.1048611775,0,-0.3471063077,6.6527929306,0.0127112321,-0.0462156116,-1.7567280643,1489,1601,1493,1521,15.4320001602,12.40234375,191.392970737
22.0013270378,-0.1609905064,-1.4750169516,-0.1309281886,0,-0.1176067889,9.6214942932,0.0107292877,-0.0546040383,-1.7628222917,1489,1594,1493,1521,15.4320001602,10.400390625,160.498829791
22.1039888859,-0.1604426354,-1.4502357245,-0.1408743262,0,0.4198362827,8.7792844772,0.010952314,-0.0774379913,-1.7715433063,1489,1592,1493,1521,15.4409999847,11.669921875,180.195263494
22.2020390034,-0.1600547284,-1.405862093,-0.1739590019,0,-1.5878773928,12.1225223541,0.0118869091,-0.0905909362,-1.7788068509,1489,1587,1493,1521,15.4409999847,13.37890625,206.583691202
22.3044440746,-0.1574281603,-1.3461219072,-0.1933171153,0,-0.0580606125,11.7126998901,0.0133130829,-0.0977197365,-1.7881869939,1489,1576,1493,1521,15.4409999847,12.451171875,192.258544732
22.4029989243,-0.1495172083,-1.2625918388,-0.1841558367,0,1.0051974058,9.7145586014,0.015166291,-0.1244065547,-1.7925773805,1489,1551,1493,1521,15.4409999847,12.451171875,192.258544732
22.5052919388,-0.1260090619,-1.1624646187,-0.2075443119,0,-0.1633390933,11.7993783951,0.017926467,-0.2000359017,-1.7968953826,1490,1520,1493,1521,15.4409999847,13.0859375,202.059960738
22.6035480499,-0.0922893882,-0.9398943186,-0.2501637638,0,0.3913868368,9.3727674484,0.0191717602,-0.2589642843,-1.7982190684,1489,1505,1493,1521,15.4289999008,13.76953125,212.450096291
22.7058370113,-0.0612530336,-0.762029171,-0.2572093606,0,-0.4159019291,11.2304868698,0.0114727582,-0.2376234152,-1.7926980653,1489,1492,1493,1521,15.4289999008,12.451171875,192.109129624
22.8047120571,-0.0369558409,-0.6370152831,-0.2765589654,0,-1.0818648338,9.5632286072,0.0088228093,-0.2076275358,-1.7842841565,1490,1489,1493,1521,15.4180002213,10.7421875,165.623049252
22.9066910744,-0.0267083459,-0.4794342816,-0.284751296,0,0.5757727027,7.9805021286,0.0144782936,-0.1872163165,-1.7648819575,1490,1487,1493,1521,15.4180002213,14.0625,216.815628111
23.0049369335,-0.0233036168,-0.375518471,-0.2935978472,0,-1.3530645371,12.6289205551,0.0210522423,-0.1830849177,-1.74009698,1490,1489,1493,1521,15.4180002213,13.037109375,201.006155228
23.107352972,-0.0395239927,-0.2792087495,-0.2658286691,0,-0.2211034745,10.7261972427,0.0250201602,-0.18253069,-1.7205231264,1490,1486,1493,1521,15.4149999619,12.3046875,189.676757343
23.205518961,-0.0595320128,-0.1738199592,-0.2567420006,0,1.4615395069,12.5964202881,0.0267306231,-0.1860488571,-1.702854347,1489,1488,1493,1521,15.4149999619,11.03515625,170.106933173
23.3079509735,-0.0802042037,-0.0409958921,-0.2090268731,0,-1.1866570711,12.1168231964,0.025781089,-0.1862398743,-1.6806726262,1489,1485,1493,1521,15.404999733,11.865234375,182.783932379
23.4072370529,-0.1050329804,0.0479167476,-0.1877640784,0,0.2297925949,8.7753067017,0.0249927579,-0.1875190975,-1.6763597848,1489,1485,1493,1521,15.404999733,10.986328125,169.244381832
23.5086679459,-0.1243683994,0.1257823855,-0.169082284,0,-0.3221362531,8.190158844,0.0170254334,-0.1777943551,-1.6792803807,1489,1484,1493,1521,15.404999733,10.498046875,161.722409306
23.6069688797,-0.1366385221,0.2028840482,-0.1584944278,0,0.1416032314,8.5044784546,0.0109504318,-0.1691077266,-1.6942797384,1489,1484,1493,1521,15.4020004272,12.79296875,197.037310153
23.7097809315,-0.1274099201,0.3006813228,-0.1502884775,0,0.1453436166,10.3655233383,0.0024947036,-0.1601254006,-1.7222534304,1489,1484,1493,1521,15.4020004272,13.134765625,202.301665768
23.8076598644,-0.1258006394,0.3641727865,-0.1274482161,0,-1.5774229765,9.4896392822,0.002633831,-0.1545770198,-1.7382887535,1489,1483,1493,1521,15.4020004272,12.353515625,190.268852934
23.9099850655,-0.1175129488,0.3915121257,-0.1142520756,0,-0.2445572615,10.0316324234,0.0043329187,-0.1526572795,-1.7467613348,1489,1472,1493,1521,15.390999794,13.134765625,202.157175029
24.0084459782,-0.0947131589,0.4729622602,-0.0992078856,0,-0.4672881961,8.7646532059,0.0071298241,-0.1507946258,-1.7609338932,1488,1449,1493,1521,15.390999794,11.669921875,179.611765174
24.110918045,-0.079756476,0.4993724525,-0.1149106622,0,-0.2240376621,9.0334815979,-0.0063269284,-0.1139816581,-1.7653224715,1488,1432,1493,1521,15.376999855,17.236328125,265.04301508
24.2092700005,-0.0690301508,0.4768025577,-0.0288546104,0,2.1958994865,10.8230733871,-0.0229070545,-0.0368051975,-1.7619255685,1489,1426,1493,1518,15.376999855,10.302734375,158.425144991
24.3114578724,-0.0586043485,0.4165777266,-0.0205081385,0,0.0173516087,10.6524658203,-0.0247984666,-0.0400044463,-1.7562351185,1489,1393,1493,1521,15.375,11.767578125,180.926513672
24.4098920822,-0.0340376571,0.4358651638,-0.048149351,0,-2.9432897568,10.5646438599,-0.0221684924,-0.1585895824,-1.7500740216,1489,1390,1493,1521,15.375,14.84375,228.22265625
24.5120389462,-0.0034594189,0.5086345077,-0.0786828622,0,0.1100655869,11.144364357,-0.0209408675,-0.2237858066,-1.7479079515,1489,1390,1493,1521,15.375,14.501953125,222.967529297
24.6103990078,0.0697399378,0.6819800735,-0.0455475077,0,-1.7219978571,13.892745018,-0.0145419103,-0.2181864891,-1.7474726493,1489,1391,1493,1521,15.3599996567,16.11328125,247.499994468
24.7128889561,0.1047976092,0.8019244671,-0.0135108326,0,0.3293866813,11.1621217728,-0.0105462042,-0.1959668883,-1.7464225942,1489,1369,1493,1521,15.3599996567,14.404296875,221.249995055
24.8114900589,0.1455114633,0.9231511354,0.0210235957,0,1.4263123274,9.1328105927,-0.0057012611,-0.1956602948,-1.7429702149,1489,1366,1493,1518,15.3599996567,14.404296875,221.249995055
24.9141070843,0.178949818,1.0495071411,0.0352521092,0,1.4691926241,7.8104100227,-0.0142865821,-0.2272067315,-1.7364891605,1489,1366,1493,1521,15.3339996338,15.380859375,235.850092024
25.0122749805,0.2262846082,1.1586561203,0.0526646115,0,1.5438822508,13.2409315109,-0.012873615,-0.2085441211,-1.7271184226,1489,1378,1493,1521,15.3339996338,12.841796875,196.916108578
25.1143169403,0.2670806646,1.248890996,0.1222685948,0,2.0620212555,13.4365882874,-0.0032260397,-0.1369123569,-1.7199245401,1489,1388,1493,1521,15.3240003586,12.5,191.550004482
25.2127978802,0.277987957,1.2445375919,0.1211003661,0,0.7331021428,9.2263059616,0.0035938006,-0.1020824405,-1.7171971538,1489,1392,1493,1521,15.3240003586,13.18359375,202.025395352
25.3150660992,0.2796990871,1.1943019629,0.1292619109,0,-0.0548251793,10.0567474365,0.0133199901,-0.0592690671,-1.7117846013,1489,1398,1493,1521,15.3249998093,14.453125,221.494137868
25.4143600464,0.2748933733,1.1698112488,0.1565116346,0,-0.5030034781,9.5988121033,0.0163529932,-0.0319526015,-1.7088253664,1489,1407,1493,1521,15.3249998093,16.650390625,255.167233152
25.5157990456,0.2625955343,1.0553251505,0.1222129837,0,-0.4373000264,8.4171590805,0.0177851134,0.0004931836,-1.7078099926,1489,1445,1493,1521,15.3249998093,16.40625,251.425778121
25.6140868664,0.2514949739,0.9582210779,0.1328877658,0,2.5959050655,12.2038469315,0.0157656364,0.0486759686,-1.7080277311,1489,1465,1493,1521,15.3219995499,13.28125,203.495306522
25.7163069248,0.2223488837,0.7042336464,0.180542171,0,1.6026905775,12.1533660889,0.0147433313,0.1273302986,-1.7113929273,1489,1488,1493,1521,15.3219995499,14.306640625,219.206341216
25.8148388863,0.2019917965,0.5513305068,0.171377793,0,1.0277878046,12.5445432663,0.015373297,0.1036077235,-1.7159207716,1489,1488,1493,1521,15.3090000153,14.404296875,220.515381079
25.9169330597,0.1800864041,0.4069156349,0.1755828261,0,-0.4011743665,12.8656253815,0.020663403,0.0781626841,-1.7213676787,1489,1490,1493,1521,15.3090000153,14.013671875,214.535302948
26.0154469013,0.1630595922,0.2852655649,0.1871522516,0,0.2623650134,11.0184144974,0.0262765329,0.0404096115,-1.7278028747,1489,1488,1493,1521,15.3090000153,15.869140625,242.94067407
26.1183168888,0.1495273262,0.1335401684,0.2004078627,0,-3.0210468769,12.0937795639,0.0309010891,0.0174103101,-1.7307153994,1489,1489,1493,1521,15.2969999313,13.623046875,208.391747111
26.2163040638,0.1149179488,0.0768649876,0.2175158113,0,0.9016926289,7.1413736343,0.0434585879,-0.007307484,-1.73342069,1488,1489,1493,1521,15.2969999313,13.427734375,205.404051812
26.3183460236,0.0910547599,0.0216404293,0.2194224596,0,-0.563592732,8.8957901001,0.0484623004,-0.0266025563,-1.7344475803,1489,1488,1493,1521,15.2969999313,13.623046875,208.391747111
26.4171020985,0.0749125257,-0.0053204279,0.2377736121,0,-0.1798345745,9.1981096268,0.050023007,-0.0403828305,-1.7352011941,1489,1489,1493,1521,15.2899999619,13.916015625,212.775878375
26.5191090107,0.0183261074,-0.0197022296,0.2261323184,0,-1.9643507004,8.6852445602,0.0442834792,-0.0572739976,-1.7362047964,1489,1488,1493,1521,15.2860002518,12.646484375,193.31416334
26.6182599068,0.0043541356,-0.0232475512,0.2287112176,0,0.377890408,9.8942470551,0.0403604782,-0.0651029615,-1.7357019792,1489,1488,1493,1521,15.2860002518,13.57421875,207.49551123
26.7197959423,-0.0200509969,-0.0197745804,0.2227533609,0,0.2651412487,9.8838796616,0.0302210655,-0.0682217541,-1.7325374211,1489,1488,1493,1521,15.2860002518,13.671875,208.988284692
26.8181610107,-0.0250654835,-0.0227582566,0.2270621508,0,0.4342093766,10.5583047867,0.0248892836,-0.0691027296,-1.7302575307,1489,1489,1493,1521,15.2849998474,13.232421875,202.25756634
26.9206259251,-0.031297598,-0.0114409411,0.2170009315,0,1.0563744307,11.6320075989,0.02187553,-0.0687939961,-1.7293007088,1489,1489,1493,1521,15.2849998474,12.548828125,191.808835976
27.0188529491,-0.0243785046,0.0082488675,0.2293318212,0,0.1597381532,12.7849283218,0.0146354611,-0.0698906096,-1.729702038,1489,1489,1493,1521,15.2849998474,13.8671875,211.959958822
27.1214950085,-0.0109810913,0.0200115461,0.2136139274,0,2.1849102974,11.5905580521,0.0058215745,-0.0659955862,-1.7296478996,1489,1490,1493,1521,15.2910003662,12.841796875,196.363920718
27.2199749947,-0.0067815566,0.0200984962,0.1946874708,0,1.071598053,11.8658494949,0.004451124,-0.0533416414,-1.7265353849,1489,1493,1493,1518,15.2910003662,13.232421875,202.336967736
27.3222110271,0.0126543539,0.0065918742,0.1859240681,0,-0.6266617775,8.5491275787,0.0050954211,-0.0410233663,-1.7214698375,1490,1521,1493,1521,15.2880001068,12.20703125,186.621095054
27.4205319881,0.0135914218,-0.0112775676,0.1682404876,0,0.6999880075,10.4103746414,0.0038513342,-0.0395048038,-1.7200105741,1490,1575,1493,1521,15.2880001068,13.57421875,207.5226577
27.522949934,0.0069864821,-0.0860185623,0.1534517556,0,-0.0333641097,7.318461895,0.0105755606,0.0258541387,-1.7181498731,1490,1596,1493,1521,15.2880001068,11.865234375,181.395704392
27.6209349632,-0.0045809834,-0.1918340921,0.1659604162,0,-0.4303739071,8.1854543686,0.0123486762,0.092934569,-1.7189156558,1490,1617,1493,1520,15.2840003967,11.9140625,182.094535977
27.7241508961,-0.0219471939,-0.2909079194,0.1573445499,0,-2.1272058487,9.2489919663,0.0123165964,0.1380160826,-1.7198245555,1490,1626,1493,1518,15.2840003967,13.037109375,199.25918486
27.8220388889,-0.0790745243,-0.6405546665,0.156269148,0,-0.134085536,9.6058273315,0.0118700854,0.2500367661,-1.7227720514,1490,1641,1493,1521,15.2770004272,13.916015625,212.594976649
27.9242150784,-0.1452378631,-1.0504953861,0.1443006545,0,1.3639431,8.7492465973,0.0111738176,0.2948666865,-1.7274527896,1490,1656,1493,1520,15.2770004272,13.525390625,206.627398357
28.0225179195,-0.1776128858,-1.3236107826,0.1251820475,0,1.1202987433,11.2089939117,0.0098230916,0.2862622641,-1.7335135677,1490,1658,1493,1521,15.2770004272,14.6484375,223.784185946
28.1249060631,-0.2078375071,-1.4795612097,0.1234246269,0,-0.1901769936,10.7109079361,0.0080287706,0.2725540782,-1.7383140493,1490,1664,1493,1521,15.2740001678,15.52734375,237.164651044
28.2233130932,-0.2386683077,-1.8289624453,0.1107288301,0,-1.2365422249,8.8888978958,0.0016478481,0.2167915657,-1.729112372,1490,1671,1493,1521,15.2740001678,13.525390625,206.586818676
28.3257188797,-0.2580967546,-2.0760343075,0.1024638638,0,-1.3225888014,9.3324041367,-0.0076307075,0.1818689439,-1.7384359231,1490,1674,1493,1521,15.265999794,13.427734375,204.987790203
28.4238939285,-0.259912014,-2.1959941387,0.0870819613,0,1.5146980286,12.3358192444,-0.0008475705,0.1693813148,-1.7405545051,1490,1673,1493,1521,15.265999794,12.255859375,187.097946694
28.5261259079,-0.2700057626,-2.3196952343,0.0759450644,0,-0.3043930233,7.7538290024,0.0029531462,0.1428375357,-1.7387375399,1490,1673,1493,1521,15.265999794,12.451171875,190.079587279
28.6243479252,-0.2714562714,-2.4448213577,0.0753372982,0,0.7807457447,11.673286438,0.0081068963,0.1065533542,-1.735409771,1490,1673,1493,1521,15.2650003433,14.55078125,222.117680777
28.7267479897,-0.2763278484,-2.5047688484,0.073254548,0,1.103122592,9.2386875153,0.0158677485,0.0856548082,-1.7321382822,1489,1674,1493,1521,15.2650003433,10.546875,160.998050496
28.8253068924,-0.2912522256,-2.5488464832,0.0665499344,0,1.3506904841,7.8901667595,0.0208939395,0.0606048191,-1.7228172434,1489,1672,1493,1521,15.2650003433,11.376953125,173.669193359
28.9274809361,-0.2948986292,-2.5616953373,0.0597953424,0,0.5432930589,12.0599117279,0.0239618304,0.05206728,-1.7134306941,1489,1672,1493,1521,15.2650003433,10.107421875,154.289798392
29.0301239491,-0.306234926,-2.5705363751,0.0429975204,0,0.9501152635,10.8620786667,0.0219532311,0.0468904283,-1.7083229607,1489,1668,1493,1521,15.2650003433,11.279296875,172.178470669
29.1283750534,-0.3177650571,-2.5411455631,0.0064010527,0,0.3077298403,10.7259054184,0.0231023357,0.0341852495,-1.6924408239,1489,1669,1493,1521,15.2729997635,9.66796875,147.658884432
29.2305939198,-0.3125233352,-2.5130476952,-0.0175596531,0,-0.6662461162,6.4354066849,0.0221010739,0.0346685217,-1.6878107182,1489,1667,1493,1521,15.2729997635,12.255859375,187.183737336
29.3289060593,-0.3233730793,-2.4969069958,-0.0490479469,0,-0.2421216518,8.9515399933,0.0188821297,0.0396028872,-1.6880176136,1489,1658,1493,1521,15.2869997025,12.158203125,185.862447554
29.4311499596,-0.3153497279,-2.4704396725,-0.0620698184,0,-1.8589835167,11.8007354736,0.0159378857,0.0345129827,-1.6929214694,1490,1637,1493,1521,15.2869997025,11.23046875,171.68017244
29.5298008919,-0.3004155159,-2.3783848286,-0.0909731537,0,-1.8799268007,4.3793830872,0.0181152286,-0.0316458502,-1.7035567245,1490,1594,1493,1521,15.2869997025,12.841796875,196.312545007
29.6320030689,-0.2619750202,-2.1153972149,-0.1509309858,0,2.0954985619,13.6490182877,0.0247657186,-0.2165509254,-1.7205414453,1490,1563,1493,1521,15.3090000153,13.232421875,202.575146686
29.7305588722,-0.2324187905,-1.8463250399,-0.1507394463,0,-0.0747096315,8.9670543671,0.0259984542,-0.300853405,-1.7311467479,1490,1521,1493,1521,15.3090000153,13.623046875,208.555224817
29.8328940868,-0.1767948419,-1.5019392967,-0.1880286187,0,2.035200119,6.4315295219,0.0365626851,-0.3990395226,-1.7474123067,1490,1489,1493,1521,15.3059997559,20.166015625,308.661030233
29.9313709736,-0.1130062491,-1.0672217608,-0.2170734704,0,1.0820738077,9.6644306183,0.0396520468,-0.3484868319,-1.7653071843,1490,1486,1493,1521,15.3059997559,14.306640625,218.977437913
30.0335390568,-0.0843619555,-0.9530819058,-0.2173180431,0,0.3434690535,13.4829349518,0.0404151994,-0.3358429736,-1.7667437828,1490,1488,1493,1521,15.3030004501,12.109375,185.309771076
30.1318950653,-0.0262619499,-0.6227203608,-0.2173908055,0,-0.6692537665,12.2780342102,0.0380543519,-0.2336220648,-1.7696810127,1489,1488,1493,1521,15.3030004501,12.646484375,193.529156083
30.2340300083,0.0077038375,-0.403909713,-0.2083210051,0,0.8716893196,12.99010849,0.0454997351,-0.1606028376,-1.7635511325,1490,1485,1493,1521,15.3030004501,12.060546875,184.562554257
30.3324179649,0.0193133131,-0.2919089198,-0.217583254,0,0.6780078411,9.4049835205,0.056413894,-0.1373381937,-1.7551763768,1490,1488,1493,1521,15.2980003357,10.107421875,154.623343237
30.4349069595,0.0208139755,-0.2150522172,-0.2380339801,0,0.5257377028,12.2839717865,0.0611423683,-0.1208466394,-1.7482415109,1489,1485,1493,1521,15.2980003357,11.083984375,169.56279669
30.5330309868,0.012635421,-0.1554987729,-0.2584396005,0,0.1660525948,9.1369905472,0.0643715315,-0.1133994553,-1.7438669872,1489,1486,1493,1521,15.3030004501,13.037109375,199.506890634
30.6353600025,-0.013960408,-0.059399426,-0.2536615729,0,-0.2009109706,10.6310186386,0.067619195,-0.1086381019,-1.7351018583,1489,1484,1493,1521,15.3030004501,12.451171875,190.540288808
30.7338349819,-0.0411210135,3.806874156E-05,-0.2434535772,0,0.3168093562,9.5541620255,0.0660827784,-0.0987230178,-1.7253578539,1489,1483,1493,1520,15.3030004501,11.71875,179.332036525
30.8361980915,-0.0699722394,0.0610658266,-0.2340174615,0,-0.0691284165,13.0797281265,0.0626157142,-0.0881159719,-1.7161249251,1489,1482,1493,1521,15.3030004501,12.79296875,195.77080654
30.9344530106,-0.1065324917,0.1143827438,-0.207952112,0,0.723243773,11.4382991791,0.0558647626,-0.0732169348,-1.7063945354,1489,1460,1493,1521,15.2950000763,13.28125,203.136719763
31.0368280411,-0.1343268007,0.1347077489,-0.1902045906,0,-1.7372305393,8.6138906479,0.04845828,-0.0619907272,-1.7007793756,1489,1460,1493,1521,15.3030004501,12.109375,185.309771076
31.1352159977,-0.131741479,0.1519026309,-0.1487002522,0,1.0740116835,9.4657058716,0.0275478613,-0.0537467275,-1.6985171153,1488,1409,1493,1521,15.3030004501,12.01171875,183.815337438
31.237349987,-0.1180153713,0.1666465998,-0.1243771762,0,-2.5044164658,10.4944810867,0.0042888415,-0.0677592865,-1.6974936699,1488,1388,1493,1521,15.3030004501,12.060546875,184.562554257
31.3360650539,-0.0605105273,0.2585248947,-0.0781238526,0,-0.5159266591,9.6730003357,-0.0045159716,-0.1604295076,-1.6956190293,1488,1350,1493,1521,15.2930002213,14.697265625,224.765286455
31.4385790825,-0.0198063347,0.393882066,-0.0389427617,0,0.610702157,11.2342720032,-0.0028980856,-0.2543697274,-1.6935383113,1488,1346,1493,1521,15.2930002213,13.671875,209.0839874
31.5366909504,0.0672362149,0.7351776361,0.0257724766,0,2.8484089375,11.2585277557,-0.0008540521,-0.3530748764,-1.6901202955,1488,1332,1493,1521,15.2700004578,13.232421875,202.059088089
31.6389079094,0.0871517509,0.8540890217,0.032881584,0,-0.0710492656,13.0280122757,0.000266979,-0.3689150673,-1.689331836,1488,1328,1493,1521,15.2700004578,15.966796875,243.81299559
31.7374429703,0.1641268581,1.2037808895,0.03624437,0,-0.0030207713,9.4132175446,0.0019763993,-0.4079398929,-1.6861380102,1488,1324,1493,1521,15.2700004578,13.37890625,204.295904562
31.8394939899,0.2311267853,1.5742092133,0.0732854158,0,1.1242594719,8.1752319336,0.0052505217,-0.3641883346,-1.681251567,1488,1326,1493,1521,15.2469997406,13.427734375,204.732662532
31.9379689693,0.2561820745,1.7687644959,0.0766009986,0,-1.322953105,5.366713047,0.0114116107,-0.3012351217,-1.6779689745,1488,1339,1493,1518,15.2469997406,14.794921875,225.57816999
32.0404849052,0.2825880945,1.8855870962,0.1072736308,0,-3.0292816162,12.5080947876,0.0141986698,-0.2323390287,-1.6761350061,1488,1358,1493,1521,15.2469997406,11.669921875,177.931295801
32.1387488842,0.2988322675,1.893809557,0.0976074263,0,-0.6506884694,10.5814428329,0.0189573069,-0.1464754248,-1.6750860072,1488,1375,1493,1521,15.2460002899,12.98828125,198.019339703
32.2419929504,0.2842563093,1.8268688917,0.1460256875,0,0.5724382997,10.5836238861,0.0211858533,-0.0209204313,-1.6694525429,1488,1380,1493,1521,15.2460002899,12.548828125,191.319437232
32.3395218849,0.2622391284,1.6997082233,0.0915736407,0,1.8215821981,8.2129049301,0.0255613911,-7.34229150659E-05,-1.6616229647,1488,1394,1493,1521,15.2460002899,12.939453125,197.274906095
32.4417760372,0.228742376,1.5048013926,0.0989267379,0,0.7900742292,8.9042606354,0.0267812174,0.0567379131,-1.6518271668,1488,1432,1493,1521,15.2629995346,11.474609375,175.13695755
32.5401060581,0.1877814531,1.299382925,0.0737487003,0,2.000869751,9.4538030624,0.0340633501,0.1266489049,-1.6451140782,1488,1448,1493,1521,15.2629995346,11.181640625,170.665375656
32.6424260139,0.1348030567,0.8926093578,0.0684261546,0,0.0433682203,9.8228473663,0.0335553038,0.2177016157,-1.6371200917,1488,1483,1493,1521,15.2709999084,10.693359375,163.298290037
32.7409110069,0.1016423777,0.6596486568,0.0095614446,0,-0.7875349522,10.2000379562,0.0304721813,0.1832488031,-1.6372330841,1488,1489,1493,1520,15.2709999084,14.697265625,224.441942014
32.8434848785,0.0725950822,0.4643229842,-0.0282561965,0,0.0002677111,5.5419330597,0.0270727993,0.1198504887,-1.6402854657,1488,1489,1493,1518,15.2849998474,14.2578125,217.930661887
32.9415478706,0.0344357044,0.2324759066,-0.0346461609,0,-0.441831708,8.2576942444,0.0153892178,0.0440663607,-1.6483309961,1488,1490,1493,1521,15.2849998474,11.669921875,178.374754079
33.0437259674,0.0114430049,0.1285898834,-0.0591259189,0,-0.3421622813,7.7803812027,0.010435103,0.0037532757,-1.6540568224,1488,1488,1493,1518,15.2849998474,13.623046875,208.228269406
33.1422510147,0.0048852828,0.0286999568,-0.0400404967,0,0.852991581,9.7000408173,0.0007244866,-0.0405786002,-1.6631947479,1488,1489,1493,1521,15.2810001373,13.4765625,205.935353413
33.2443490028,0.0191832166,-0.0009426242,-0.027465377,0,0.0276901163,6.9361419678,-0.0001527965,-0.0669351956,-1.67080896,1488,1489,1493,1521,15.2810001373,14.794921875,226.081203204
33.3428249359,0.0179114379,-0.0198097229,-0.0083432123,0,1.4799488783,8.5408124924,-0.0002274803,-0.0815142967,-1.6764754952,1488,1489,1493,1521,15.2810001373,14.35546875,219.36591994
33.4452250004,0.0350385085,-0.0149428099,0.0324069746,0,0.1833668053,12.4328708649,-0.0007222158,-0.0965394463,-1.6832744697,1489,1489,1493,1521,15.2690000534,13.818359375,210.992530035
33.5435490608,0.0421419032,-0.0023587006,0.0483762026,0,-1.1297291517,10.4052400589,0.0015669848,-0.1011427206,-1.6852674995,1499,1489,1493,1521,15.2690000534,13.037109375,199.063623743
33.6457788944,0.0468341187,-2.66723800451E-05,0.0614003949,0,0.6858465672,10.8699083328,0.0028332047,-0.1038368947,-1.6871766819,1540,1486,1493,1521,15.2620000839,14.306640625,218.347950419
33.744150877,0.0791518241,0.0057989862,0.0664198697,0,-1.4176051617,11.055232048,-0.0013633242,-0.0958171198,-1.6883586057,1617,1485,1493,1521,15.2620000839,13.330078125,203.443653462
33.8465158939,0.1595437378,-0.0109928129,0.0912437215,0,0.9099729657,10.4611215591,-0.0966013664,-0.073153294,-1.6883145327,1669,1483,1493,1521,15.2559995651,14.0625,214.537493885
33.9454989433,0.2747533023,-0.0411242321,0.0998223945,0,2.6206524372,11.9049320221,-0.1626741083,-0.0670382052,-1.6894325677,1688,1483,1493,1521,15.2559995651,15.576171875,237.630071351
34.0472619534,0.4831722677,-0.0844364762,0.128538236,0,-2.5929384232,11.6226501465,-0.2268111444,-0.0638470913,-1.6913385779,1705,1483,1493,1518,15.2559995651,14.990234375,228.691009106
34.1461040974,0.7645250559,-0.1340003163,0.1368881017,0,-0.819011569,8.4911575317,-0.3056208874,-0.0659525744,-1.6942471791,1710,1483,1493,1521,15.2460002899,14.74609375,224.818949588
34.2480530739,1.2168660164,-0.2162823677,0.1405451298,0,-1.7442986965,11.6890497208,-0.3690249364,-0.073605339,-1.6964652327,1712,1483,1493,1518,15.2460002899,12.40234375,189.086136408
34.3466598988,1.5481444597,-0.2704408467,0.1435495317,0,-0.0891392156,10.2927331924,-0.3956312983,-0.0793518339,-1.6961532537,1712,1483,1493,1521,15.2460002899,15.4296875,235.241020098
34.4487478733,2.0758037567,-0.3481687009,0.1386919767,0,0.3205482364,12.8925504684,-0.4285029701,-0.082124181,-1.6952675451,1712,1484,1493,1521,15.2290000916,12.744140625,194.080518745
34.5472080708,2.2503507137,-0.3674644828,0.1253837645,0,-0.3737275898,10.819144249,-0.4164813298,-0.0801707656,-1.695807759,1712,1482,1493,1521,15.2290000916,12.451171875,189.618897624
34.649533987,2.5519149303,-0.4117476642,0.1128917485,0,0.8111388683,8.8419103622,-0.3642697416,-0.0788835155,-1.6965850858,1712,1483,1493,1521,15.2290000916,12.5,190.362501144
34.7481138706,2.8769242764,-0.4283083975,0.1189791858,0,-2.4400141239,7.4920349121,-0.2726120478,-0.0811948022,-1.6960641619,1712,1483,1493,1521,15.2220001221,12.5,190.275001526
34.8502249718,3.1214990616,-0.4581184089,0.1075759605,0,-0.890255332,6.6738753319,-0.1976821966,-0.0769142543,-1.6974397955,1711,1483,1493,1521,15.2220001221,10.693359375,162.774317712
34.9485599995,3.1923146248,-0.4717690647,0.0772651434,0,-0.7449946404,11.4571037292,-0.180563711,-0.0741049716,-1.6984050283,1707,1483,1493,1521,15.2250003815,9.814453125,149.425052572
35.0512940884,3.2704646587,-0.4760600328,0.0308265705,0,-2.1003818512,9.9236602783,-0.1502170549,-0.0783690796,-1.6978856884,1701,1485,1493,1521,15.2250003815,10.888671875,165.780033451
35.149971962,3.3540165424,-0.4663835168,-0.0463996977,0,1.2306751013,7.5296697617,-0.0787344027,-0.0747457475,-1.6931062518,1692,1486,1493,1521,15.2440004349,12.3046875,187.572661601
35.2519009113,3.3508138657,-0.4609823823,-0.0933388695,0,-0.4153081179,8.6254768372,-0.04622556,-0.0709052275,-1.6892027691,1692,1486,1493,1521,15.2440004349,13.623046875,207.669732487
35.3502850533,3.3360750675,-0.4557408094,-0.1247034669,0,-0.8412467241,12.3764276505,-0.0297635896,-0.0692200109,-1.6836863948,1691,1486,1493,1521,15.2440004349,12.5,190.550005436
35.4523289204,3.3018562794,-0.4514541626,-0.1531909853,0,3.4108023644,6.2917485237,-0.0277109268,-0.0688184614,-1.6801465802,1691,1486,1493,1521,15.263999939,13.037109375,198.998436704
35.5506820679,3.2785434723,-0.4496355951,-0.1818233281,0,0.5969775319,8.2624568939,-0.0327293538,-0.0677612704,-1.6765282968,1691,1486,1493,1521,15.263999939,12.451171875,190.05468674
35.652905941,3.2523334026,-0.4473390579,-0.2163419276,0,-3.1789011955,9.5035667419,-0.0382917866,-0.0701030273,-1.6770826453,1691,1485,1493,1521,15.2690000534,13.8671875,211.738086678
35.7511708736,3.2349021435,-0.451703757,-0.2350484282,0,-1.3901696205,10.3100090027,-0.0452873054,-0.0680970208,-1.6795447721,1691,1486,1493,1521,15.2690000534,12.3046875,187.880274095
35.8536438942,3.2301650047,-0.4506082535,-0.2434956133,0,-1.1702721119,6.2274169922,-0.0537922154,-0.0742099113,-1.6841767305,1691,1486,1493,1521,15.2690000534,12.353515625,188.625830738
35.9520208836,3.2284879684,-0.4473473132,-0.2835530043,0,2.6892251968,1.6858319044,-0.0532407188,-0.0762195517,-1.6866120773,1691,1486,1493,1521,15.267999649,12.6953125,193.832026795
36.0548119545,3.2300081253,-0.449042052,-0.2966193259,0,-0.8207399845,6.4239387512,-0.0571702806,-0.0759023397,-1.6887139174,1689,1486,1493,1521,15.267999649,12.646484375,193.086518999
36.1529450417,3.2246165276,-0.4362120032,-0.3254773021,0,-1.4565169811,8.5311536789,-0.047908279,-0.0755934191,-1.6881758385,1688,1486,1493,1518,15.265999794,11.767578125,179.643845232
36.255439043,3.22214818,-0.4263755977,-0.3341194987,0,-5.0653529167,12.9025650024,-0.040170623,-0.0726493149,-1.6858694116,1687,1485,1493,1521,15.265999794,11.71875,178.898435086
36.3534629345,3.1894614697,-0.4169710875,-0.3529476821,0,-0.86822927,7.6332387924,-0.0389948141,-0.0781352957,-1.6868251347,1686,1485,1493,1521,15.265999794,12.353515625,188.588766987
36.4557259083,3.1845228672,-0.4147010446,-0.3695546687,0,1.1954994202,8.5869817734,-0.0402903819,-0.0787366885,-1.6884474978,1683,1485,1493,1521,15.265999794,13.427734375,204.987790203
36.5540630817,3.1584939957,-0.4095865488,-0.3766304553,0,1.2159961462,11.9809017181,-0.0393499476,-0.0730976211,-1.6969983235,1668,1487,1493,1521,15.265999794,12.79296875,195.297458302
36.6561629772,3.0558493137,-0.4030526876,-0.3914293349,0,-1.0223273039,8.1938877106,0.06315006,-0.0704850753,-1.7086762184,1610,1490,1493,1521,15.2580003738,12.548828125,191.470024223
36.7548570633,2.8982014656,-0.3869842589,-0.3847302794,0,-3.7530961037,9.2797307968,0.187927731,-0.0669202951,-1.7157345012,1560,1488,1493,1521,15.2580003738,16.552734375,252.561627282
36.8570919037,2.5705699921,-0.3576871157,-0.3745720983,0,0.1049137786,9.5902767181,0.3403577082,-0.0615385197,-1.7233432841,1529,1488,1493,1521,15.2580003738,13.720703125,209.350493411
36.9554259777,2.1725845337,-0.3217171431,-0.3708909154,0,2.0112187862,11.1962852478,0.4420287005,-0.0593480585,-1.7278503169,1502,1489,1493,1521,15.236000061,13.4765625,205.328907073
37.0579741001,1.5476475954,-0.2488360703,-0.4186685979,0,2.7088577747,10.0711755753,0.4209486154,-0.0598289596,-1.7312009181,1489,1489,1493,1521,15.236000061,12.841796875,195.657617971
37.1561429501,1.2455261946,-0.2133769393,-0.4290578961,0,0.7470911741,9.6665029526,0.3469130285,-0.0627251821,-1.7306661504,1489,1487,1493,1521,15.2270002365,13.525390625,205.951126246
37.2583808899,0.8720167279,-0.1548708826,-0.4106204212,0,0.9515689611,9.4140481949,0.2510577434,-0.0676410884,-1.7248781291,1488,1489,1493,1520,15.2270002365,13.671875,208.181643859
37.3568129539,0.6729440689,-0.1282876283,-0.3975315392,0,0.989723444,9.501660347,0.2012869826,-0.0725025394,-1.718018064,1488,1487,1493,1521,15.2290000916,13.818359375,210.439796187
37.459102869,0.5336667895,-0.101683937,-0.3677038848,0,2.7660748959,9.8289461136,0.1556230533,-0.0703265068,-1.7093908594,1488,1487,1493,1521,15.2290000916,13.232421875,201.516553946
37.5577020645,0.4147715867,-0.0732127577,-0.3392699063,0,-0.7346191406,11.6719751358,0.1264024935,-0.0755269815,-1.700917677,1488,1489,1493,1521,15.2290000916,15.625,237.953126431
37.6597678661,0.2773404717,-0.0428702086,-0.2845380008,0,0.532243669,14.2999515533,0.105394506,-0.076533762,-1.694122849,1488,1487,1493,1521,15.2220001221,13.818359375,210.343068093
37.758234024,0.2356289774,-0.0406429656,-0.2611996233,0,0.2234496325,10.5360393524,0.1001597005,-0.0769549131,-1.6932410751,1488,1487,1493,1521,15.2220001221,13.623046875,207.370021194
37.8605899811,0.0999730378,-0.0149192279,-0.1132786572,0,-0.3659929335,11.617723465,0.0727030046,-0.0736263468,-1.6853761875,1489,1487,1495,1521,15.2220001221,14.697265625,223.721779138
37.9588670731,0.0391660668,-0.010984892,-0.0272515789,0,-1.3852934837,8.9553670883,0.0618435627,-0.0823788553,-1.6799802127,1488,1489,1495,1518,15.2080001831,14.111328125,214.605080709
38.0612769127,0.0002840144,-0.0157926232,0.038596455,0,-1.7502775192,8.7733039856,0.0471499361,-0.0940580059,-1.6718572317,1488,1487,1510,1518,15.2080001831,13.4765625,204.951564968
38.1594898701,-0.0546464138,-0.0006440412,0.1316872388,0,-1.7881997824,8.7875728607,0.0340974176,-0.1053482505,-1.6592950838,1488,1487,1517,1520,15.1999998093,12.451171875,189.257810125
38.2618770599,-0.0803079158,0.0110206287,0.1854977012,0,0.3063764572,8.7744493485,0.0319871277,-0.1085560968,-1.6522382514,1488,1486,1517,1518,15.1999998093,12.939453125,196.679685032
38.3608989716,-0.0897783265,0.0274358075,0.2190692723,0,0.9401487708,11.6431455612,0.0242154143,-0.1175633487,-1.6471680718,1488,1489,1516,1518,15.2049999237,13.623046875,207.138426695
38.4626250267,-0.0939498171,0.0521055385,0.2158017457,0,-0.8093820214,11.7669172287,0.0194014508,-0.1219875415,-1.6477433979,1488,1487,1517,1518,15.2049999237,12.109375,184.123045951
38.5612940788,-0.0876628086,0.0956307128,0.2228383869,0,-0.8437618017,11.7121515274,0.0079562434,-0.124815282,-1.6597874503,1488,1486,1517,1518,15.2049999237,13.330078125,202.683836874
38.6631910801,-0.0651162788,0.1345099807,0.2292776555,0,-0.2825120986,10.133263588,0.0072460832,-0.1261499712,-1.6751708023,1488,1487,1515,1518,15.2069997787,12.3046875,187.11738009
38.7617969513,-0.0426977724,0.1659896523,0.2347856462,0,0.7885338664,8.5433197022,0.0087641213,-0.1247137979,-1.6914738403,1488,1486,1516,1518,15.2069997787,12.6953125,193.057614379
38.8639819622,-0.0363735482,0.2026857585,0.2363512218,0,-0.7666354775,8.9900722504,0.0090865165,-0.1206976397,-1.7110528761,1488,1489,1515,1518,15.2069997787,13.623046875,207.165670814
38.9625899792,-0.0012205283,0.2558891177,0.2077911049,0,-0.5552009344,8.2771520615,0.0048960958,-0.1237422438,-1.7272886513,1488,1486,1515,1518,15.2100000381,12.20703125,185.668945778
39.0646710396,0.0194416996,0.2884976566,0.2166648507,0,-1.5330736637,12.0151395798,0.0087965369,-0.1095347168,-1.7342945673,1488,1486,1515,1518,15.2100000381,13.037109375,198.294434091
39.1634380817,0.053995166,0.3233042657,0.2138026655,0,-1.2687927485,8.2280778885,0.0171452301,-0.0948233103,-1.7369125279,1488,1486,1515,1520,15.2130002975,13.28125,202.047660202
39.2656300068,0.062445078,0.3354301453,0.2089707404,0,-0.4661429226,11.9792776108,0.0199053128,-0.0923911639,-1.7364478402,1488,1487,1515,1518,15.2130002975,11.181640625,170.106302155
39.3639330864,0.055798877,0.3437961638,0.2206964344,0,-0.1972166747,9.8513126373,0.0275347321,-0.0784533469,-1.7308047215,1488,1487,1515,1520,15.2130002975,13.623046875,207.247416163
39.4667859077,0.0594004504,0.3391149938,0.2256046385,0,3.0458467007,11.7245492935,0.0295172801,-0.0750978695,-1.7259778149,1488,1487,1515,1518,15.2139997482,11.669921875,177.546188468
39.5648620129,0.0441945903,0.3308678865,0.2089167535,0,0.6179870367,11.5335969925,0.0331696266,-0.0707737635,-1.7192037063,1488,1486,1515,1518,15.2139997482,13.525390625,205.775289563
39.6669409275,0.0345155187,0.3235236406,0.2257858813,0,2.0037820339,11.5162963867,0.0349437351,-0.0645884534,-1.7131256457,1488,1489,1515,1518,15.2170000076,12.060546875,183.525341889
39.7692160606,0.0304984339,0.3033280075,0.2077279985,0,-1.6811170578,11.9183006287,0.0352755027,-0.0639442061,-1.7109864478,1488,1486,1515,1518,15.2170000076,12.40234375,188.726464938
39.8676328659,0.0217397735,0.2860639095,0.2048161775,0,0.7309042215,7.4627633095,0.0376384288,-0.0650968826,-1.7096685012,1488,1487,1515,1518,15.220000267,13.0859375,199.167972244
39.9701290131,0.0107751265,0.2778448462,0.2212827206,0,1.0141373873,10.9127855301,0.0388099143,-0.065896825,-1.710896376,1486,1488,1515,1518,15.220000267,11.279296875,171.670901449
40.0682270527,-0.0021796094,0.2652056515,0.2208859175,0,-0.1482639313,9.5167598724,0.036517794,-0.0641175456,-1.716153312,1484,1485,1515,1521,15.220000267,12.890625,196.195315942
40.1704699993,-0.0070522726,0.2551345527,0.2164647579,0,-0.2329892516,13.0558576584,0.0369684535,-0.0664343163,-1.7189253087,1480,1484,1515,1521,15.2250003815,13.28125,202.207036316
40.2690870762,-0.0103807626,0.2405722886,0.23402372,0,0.8632572293,8.4843902588,0.037916024,-0.0644386782,-1.7169138093,1456,1485,1515,1518,15.2250003815,11.42578125,173.95752389
40.3711428642,-0.0213307925,0.2335445136,0.2233151048,0,-1.9101747274,8.7013940811,0.0409125369,-0.0672211405,-1.7132490096,1437,1484,1515,1518,15.2229995728,19.677734375,299.554141983
40.4695420265,-0.0623069406,0.2155232579,0.2128805369,0,1.9834939241,8.5448322296,0.0644900157,-0.0402642565,-1.7086670846,1396,1486,1515,1521,15.2229995728,12.451171875,189.544184133
40.5720069408,-0.1248928234,0.2060546875,0.1940392256,0,0.3491288722,8.8113269806,0.1131231763,-0.0344493874,-1.7059389102,1373,1486,1515,1518,15.2229995728,12.01171875,182.854389399
40.6703410149,-0.2546601593,0.1859226227,0.188783586,0,2.1928496361,12.2678279877,0.2067551046,-0.0371646436,-1.6999427568,1355,1488,1515,1518,15.2150001526,15.625,237.734377384
40.7730998993,-0.4187387228,0.1863342226,0.160831973,0,2.5237128735,11.5081377029,0.2660602198,-0.0478439989,-1.697034899,1340,1488,1515,1518,15.2150001526,16.89453125,257.050295547
40.8713600636,-0.8823161721,0.1835025847,0.1422461867,0,1.8937625885,14.0050725937,0.3464707647,-0.0571002745,-1.6892292431,1324,1487,1515,1518,15.2150001526,13.720703125,208.76050014
40.9732739925,-1.142051816,0.1989951134,0.1517960727,0,-1.0306837559,12.5860023499,0.383611475,-0.0609982112,-1.6865815973,1324,1487,1515,1518,15.1949996948,12.353515625,187.711666152
41.0717198849,-1.3380509615,0.2073809505,0.1319928765,0,0.28155756,9.2600421906,0.3846648086,-0.0670861374,-1.6858319862,1323,1489,1515,1518,15.1949996948,12.5,189.937496185
41.1740019321,-1.7434921265,0.2265749872,0.0968467668,0,3.8646876812,8.8410949707,0.3350914851,-0.073616873,-1.6859417414,1315,1489,1515,1518,15.1859998703,13.28125,201.689060777
41.2725169659,-2.0605623722,0.2457836866,0.096105516,0,-1.5454517603,6.325820446,0.2911584801,-0.0799591926,-1.6915288758,1313,1489,1515,1518,15.1859998703,14.794921875,224.675681675
41.3748998642,-2.2307133675,0.2490545958,0.0955303013,0,2.7646064758,7.2599344254,0.2467253761,-0.084393176,-1.6988689809,1313,1489,1515,1518,15.1770000458,13.18359375,200.087402947
41.4733688831,-2.3579497337,0.2644486427,0.0944172889,0,2.1640775204,9.401427269,0.2192237761,-0.0868610245,-1.7065381686,1314,1487,1515,1518,15.1770000458,15.13671875,229.729981162
41.5760540962,-2.4747803211,0.2836007476,0.0966634303,0,0.8227588534,11.0902385712,0.1896254793,-0.0845009106,-1.7119378976,1313,1489,1515,1518,15.1770000458,13.720703125,208.239111956
41.6740109921,-2.553870678,0.2858770788,0.0841583237,0,-0.663743794,9.4804859161,0.1651566106,-0.0847568066,-1.7174076604,1313,1489,1515,1518,15.1800003052,12.255859375,186.043949053
41.7760238647,-2.6807119846,0.3124428689,0.0919751301,0,2.3745639324,9.3022480011,0.146003529,-0.0863220339,-1.7210115944,1313,1487,1515,1518,15.1800003052,13.818359375,209.76269953
41.874587059,-2.7480180264,0.3424180746,0.0774703994,0,0.0426509343,10.137509346,0.1270785547,-0.0841055595,-1.724470122,1313,1487,1515,1518,15.1800003052,13.671875,207.539066672
41.9768390656,-2.7859039307,0.3572344482,0.0747499317,0,-2.3363509178,8.691151619,0.1128651799,-0.0811734684,-1.7249083193,1314,1488,1515,1518,15.1859998703,14.453125,219.485154375
42.0751640797,-2.7986512184,0.3573091626,0.0840837285,0,1.5544731617,11.1266069412,0.1020565588,-0.0744197629,-1.7241675411,1314,1488,1515,1518,15.1859998703,12.548828125,190.566502279
42.1778159142,-2.8279833794,0.3617528379,0.0785600543,0,0.1479315907,8.7361278534,0.0975496496,-0.0775680928,-1.7231055092,1313,1488,1515,1518,15.1820001602,13.28125,201.635939628
42.2762360573,-2.8398752213,0.3701776266,0.0906532481,0,-2.0415985584,8.6059436798,0.0927028958,-0.0759579516,-1.7198270605,1314,1488,1515,1518,15.1820001602,14.35546875,217.944728862
42.3782660961,-2.8564367294,0.3712396026,0.0761701018,0,-0.0083948597,12.4383411407,0.0893904763,-0.0753949826,-1.718644181,1313,1488,1515,1518,15.1820001602,12.255859375,186.068458995
42.4766170979,-2.8628849983,0.3842908442,0.0617480166,0,2.1166830063,12.2353248596,0.0855857569,-0.0741804931,-1.7174702483,1314,1485,1515,1520,15.1920003891,13.037109375,198.059770698
42.5791780949,-2.8901705742,0.3943824768,0.0411419421,0,3.171867609,11.3740577698,0.0845986797,-0.0751240414,-1.7149969952,1314,1488,1515,1518,15.1920003891,13.623046875,206.961333426
42.677298069,-2.9095094204,0.402217567,0.0324717388,0,0.9062376618,9.6947002411,0.0814679042,-0.0694870049,-1.7128830187,1314,1485,1515,1518,15.1929998398,12.451171875,189.170652302
42.7798070908,-2.9322373867,0.4140626788,0.0456826016,0,-2.7527985573,10.9644565582,0.0793302309,-0.0659089929,-1.7125820277,1314,1485,1515,1518,15.1929998398,12.5,189.912497997
42.8782560825,-2.9537444115,0.4264880717,0.0485488437,0,2.4653749466,12.1060314178,0.0746663501,-0.0655988493,-1.7173759688,1314,1485,1515,1518,15.1929998398,14.404296875,218.844480114
42.980989933,-2.9482738972,0.4382743537,0.0822690502,0,1.2212843895,12.7220478058,0.0674577319,-0.0613984871,-1.7196438128,1314,1485,1515,1518,15.1940002441,13.232421875,201.053421199
43.0787229538,-2.9620685577,0.4495203793,0.1095447689,0,-1.9562510252,12.4821872711,0.0650051515,-0.0584759491,-1.7198268383,1313,1485,1515,1518,15.1940002441,11.42578125,173.603323102
43.1810629368,-2.9686937332,0.4459320307,0.110377185,0,1.6546424627,6.698741436,0.0688991888,-0.0551330656,-1.7195462464,1309,1485,1515,1518,15.1940002441,11.71875,178.054690361
43.2799780369,-3.0220677853,0.4280944169,0.0951340646,0,-0.6426663995,11.8061094284,0.0952255863,-0.0561766398,-1.715155985,1297,1485,1515,1518,15.1899995804,12.6953125,192.841791548
43.381690979,-3.1022443771,0.4150317907,0.1359614581,0,1.0572674274,8.522310257,0.1372317299,-0.0516539116,-1.7117063326,1296,1485,1515,1518,15.1899995804,13.671875,207.675775513
43.4801859856,-3.1611223221,0.4009265602,0.1345692426,0,0.7451544404,10.0667743683,0.1364149412,-0.0567627059,-1.7098814975,1296,1486,1515,1518,15.1920003891,12.6953125,192.86719244
43.5823869705,-3.2309699059,0.3922937214,0.1372314096,0,4.2002658844,8.6951761246,0.1338149169,-0.0606553346,-1.7083129978,1295,1485,1515,1518,15.1920003891,12.6953125,192.86719244
43.6808989048,-3.2790951729,0.3869115412,0.1495069414,0,1.6065783501,9.3573188782,0.1204679975,-0.0643208099,-1.706264311,1295,1485,1515,1518,15.1920003891,11.669921875,177.289457666
43.7834420204,-3.3515679836,0.3720409572,0.1518907994,0,0.0865804181,10.9091730118,0.1011402615,-0.0691514473,-1.7026070365,1296,1486,1515,1518,15.1909999847,12.890625,195.821484178
43.8817129135,-3.3768351078,0.3820059597,0.1539259553,0,-0.1716528982,9.6789140701,0.0900867041,-0.0712118534,-1.7014148425,1297,1486,1515,1518,15.1909999847,11.865234375,180.24477521
43.9840180874,-3.4054765701,0.3853897154,0.1362613589,0,0.9444352984,7.2343301773,0.0788012445,-0.073949906,-1.7001179591,1298,1485,1515,1518,15.2049999237,11.279296875,171.501708124
44.0822019577,-3.3986983299,0.3890957534,0.1209970117,0,0.4419946074,9.9610710144,0.0748697528,-0.0745891713,-1.7003601102,1298,1485,1515,1518,15.2049999237,11.279296875,171.501708124
44.184458971,-3.4109759331,0.3942159712,0.1208289862,0,0.4949167371,7.4345431328,0.0648905771,-0.0770059779,-1.6996060681,1298,1486,1515,1518,15.2049999237,11.669921875,177.441161219
44.2828578949,-3.4117221832,0.4142811298,0.1390392184,0,-0.8702765107,10.5098276138,0.0605542888,-0.0776407384,-1.6993659742,1298,1485,1515,1518,15.2030000687,14.208984375,216.019190429
44.3853230476,-3.4136168957,0.4309869409,0.1563217789,0,1.3803983927,10.2054290771,0.0607341438,-0.0769152478,-1.6995105604,1298,1486,1515,1518,15.2030000687,12.939453125,196.718506748
44.4835290909,-3.4138293266,0.4385911822,0.1641394794,0,2.4600307941,11.2512950897,0.0622254921,-0.0747200521,-1.7018279988,1298,1485,1515,1518,15.2019996643,11.669921875,177.406148426
44.5858340263,-3.41954422,0.4391511977,0.1892684251,0,0.2169774026,13.0682125092,0.0634251816,-0.0743296399,-1.7047051914,1299,1486,1515,1518,15.2019996643,13.330078125,202.643843181
44.6841700077,-3.4167342186,0.4446875751,0.1926437318,0,-0.1127772033,10.2067918777,0.0540362386,-0.0720431843,-1.7067989076,1300,1485,1515,1518,15.1960000992,12.255859375,186.240040278
44.7867870331,-3.4116606712,0.4411893785,0.1803710908,0,0.2463052422,9.3988246918,0.0497023043,-0.0710501603,-1.7096036083,1303,1486,1515,1518,15.1960000992,12.060546875,183.272071509
44.8848900795,-3.3831410408,0.4502939284,0.1860750765,0,-0.0282044578,8.4474315643,0.0347366686,-0.0749866551,-1.7109100444,1321,1486,1515,1518,15.1960000992,14.94140625,227.049610857
44.987226963,-3.3421273232,0.4516346157,0.1778978705,0,-0.3414755464,8.5193948746,-0.0072829797,-0.0727974539,-1.7091403081,1332,1486,1515,1518,15.1960000992,14.35546875,218.145704549
45.0858778954,-3.2578363419,0.4437910914,0.1886402369,0,0.9936491251,10.4927434921,-0.0397892588,-0.0733570179,-1.7074348265,1345,1484,1515,1518,15.1960000992,13.037109375,198.111915356
45.1882400513,-3.0619060993,0.412860781,0.1846234649,0,-2.5089530945,8.823264122,-0.1437279475,-0.0679499096,-1.7018583619,1370,1485,1515,1518,15.1960000992,10.693359375,162.496290123
45.2868249416,-2.8519833088,0.3775022328,0.1864299923,0,-1.8036562204,11.6440324783,-0.2080422764,-0.0691138759,-1.6991460095,1385,1485,1515,1518,15.1929998398,15.13671875,229.972165544
45.389029026,-2.5332181454,0.3313601613,0.1811468452,0,-0.2110817283,13.257276535,-0.2746222729,-0.0713813787,-1.6974048169,1416,1484,1515,1518,15.1929998398,13.037109375,198.072800646
45.4873030186,-2.1787359715,0.2795493901,0.1912457794,0,1.6865034103,9.7003726959,-0.3200943353,-0.0696665909,-1.6972658664,1439,1484,1515,1518,15.1809997559,14.306640625,217.189107835
45.5893449783,-1.6634434462,0.2103650272,0.1686240435,0,-3.9843578339,7.5337023735,-0.3726715719,-0.0735055264,-1.6966360291,1466,1484,1515,1518,15.1809997559,14.404296875,218.671627343
45.6878929138,-1.3449232578,0.1549234986,0.1349068582,0,-0.9406654835,9.6024961472,-0.3400718852,-0.0726422339,-1.6995184425,1487,1485,1515,1518,15.1809997559,13.623046875,206.811471283
45.7901580334,-1.063162446,0.1110613048,0.1144294962,0,-0.7799432278,10.4123430252,-0.2714645225,-0.0719877341,-1.7024201439,1488,1485,1515,1518,15.1759996414,12.109375,183.771870658
45.88834095,-0.8360279799,0.094984442,0.1101107597,0,-1.0898367167,9.8118591309,-0.2239499735,-0.073030951,-1.7025919686,1488,1487,1515,1520,15.1759996414,13.623046875,206.74335449
45.9908239841,-0.5900990367,0.0716975108,0.1044782847,0,0.2303618789,9.140625,-0.1432276336,-0.0730099606,-1.7013730933,1488,1488,1515,1518,15.1739997864,12.646484375,191.897751205
46.0892570019,-0.4633782804,0.067914851,0.0964264795,0,3.3929095268,12.1505222321,-0.1163357003,-0.0722304044,-1.6989461745,1488,1489,1515,1518,15.1739997864,12.20703125,185.22948958
46.1916570663,-0.4088068604,0.069164224,0.0977418199,0,-0.5912349224,8.2246732712,-0.1084130509,-0.0709176907,-1.6981379628,1488,1489,1515,1518,15.1739997864,12.646484375,191.897751205
46.2901659012,-0.2844643593,0.0640918911,0.0770937577,0,1.0611073971,10.9806251526,-0.0861370131,-0.0621818651,-1.6948682616,1489,1489,1515,1518,15.1689996719,12.20703125,185.168453027
46.3922319412,-0.1890401393,0.0522246845,0.0588713996,0,-0.6458445787,9.55402565,-0.0718284711,-0.0543390338,-1.6923129836,1488,1489,1515,1518,15.1689996719,11.81640625,179.24306253
46.4906129837,-0.1414670944,0.0472342372,0.0489860848,0,-0.6864598989,8.8866672516,-0.0609615072,-0.0511561976,-1.6918558129,1489,1487,1515,1518,15.1820001602,14.306640625,217.203420261
46.5929820538,-0.0788673311,0.0305491649,0.0470002219,0,-0.3746064603,11.4457159042,-0.0492401175,-0.0511350466,-1.6931739117,1489,1489,1515,1518,15.1820001602,11.71875,177.914064378
46.6917150021,-0.0604939312,0.0236354973,0.0413920768,0,0.4824817777,11.1378746033,-0.0478120592,-0.0510725245,-1.6937058866,1489,1487,1515,1518,15.1820001602,12.451171875,189.033693401
46.7943129539,-0.0242313407,0.008127762,0.0256111696,0,-0.223751545,10.5872116089,-0.0432095718,-0.0509875277,-1.6968591826,1489,1487,1515,1518,15.1909999847,11.669921875,177.277783025
46.8919010162,0.0050711632,-0.0075687403,0.0007417882,0,0.8781126738,10.1128845215,-0.0416077756,-0.0536426352,-1.7005449611,1489,1487,1515,1518,15.1909999847,11.962890625,181.728271302
46.9944388866,0.0351151712,-0.0056461114,-0.0181433074,0,-0.7319557667,8.3466539383,-0.0388674084,-0.0585614056,-1.7018181286,1489,1487,1515,1518,15.1999998093,11.328125,172.187497839
47.0926840305,0.056819465,-0.0068575209,-0.0465706065,0,1.0142526627,7.027844429,-0.0351345531,-0.0606705799,-1.7023169388,1489,1487,1515,1518,15.1999998093,11.474609375,174.414060311
47.1949279308,0.0790988132,-0.0162700713,-0.094427228,0,-0.6400247812,8.379404068,-0.0323122927,-0.0588628027,-1.7026818798,1489,1489,1515,1518,15.1999998093,11.5234375,175.156247802
47.2933659554,0.1000780389,-0.0241561923,-0.136292249,0,-0.7468345165,9.8948202133,-0.026267389,-0.0557327864,-1.7025314902,1489,1489,1515,1518,15.2119998932,11.865234375,180.493944045
47.3960769176,0.1069425121,-0.0355745852,-0.1616783142,0,-0.6375700235,10.5535306931,-0.0195841786,-0.0565085264,-1.7015275338,1489,1489,1515,1518,15.2119998932,13.623046875,207.233787607
47.4944338799,0.1064795405,-0.0389094241,-0.1717497706,0,1.0620872974,7.4531841278,-0.0177219163,-0.0578675881,-1.7011797616,1489,1489,1515,1518,15.2229995728,9.9609375,151.635347307
47.5965440273,0.120584242,-0.0343244523,-0.1708562076,0,-0.2148973644,7.3085408211,-0.0110006904,-0.0625574681,-1.6968426652,1489,1487,1515,1518,15.2229995728,12.548828125,191.030805185
47.6948609352,0.1182663515,-0.0285670459,-0.1719120294,0,-1.6122064591,8.1287307739,-0.0126693169,-0.0622925706,-1.6959752712,1489,1489,1515,1518,15.2229995728,13.134765625,199.950531498
47.7971549034,0.1210153252,-0.0220012199,-0.171424523,0,-0.1089892387,9.4170312882,-0.0129594976,-0.0621786655,-1.6943234591,1489,1489,1515,1518,15.2290000916,14.35546875,218.619434908
47.8956260681,0.1185035035,-0.0201855563,-0.1635984927,0,0.7841492891,10.1729660034,-0.011296668,-0.0603846664,-1.6917616054,1491,1488,1515,1518,15.2290000916,12.841796875,195.567725785
47.9977838993,0.1187256128,-0.0187003892,-0.1537219286,0,1.1385827065,10.8728742599,-0.010223168,-0.0583889929,-1.6891141978,1492,1490,1515,1518,15.232000351,12.451171875,189.65625437
48.096255064,0.1073635221,-0.0183701646,-0.1213067174,0,-1.1738126278,10.9678277969,-0.0068556063,-0.0569985799,-1.6861710362,1492,1490,1515,1518,15.232000351,12.98828125,197.837504558
48.1986680031,0.0983415842,-0.0212625377,-0.1134504825,0,-0.7012355328,12.0682210922,-0.005935014,-0.0561126099,-1.6835484273,1544,1490,1515,1518,15.232000351,12.841796875,195.606254507
48.2967948914,0.094542861,-0.0123222675,-0.1096598953,0,1.2401562929,9.9228162766,0.0011641695,-0.0600481398,-1.6826812123,1682,1488,1515,1518,15.2209997177,13.232421875,201.410689624
48.399518013,0.1538502872,-0.0238987431,-0.0857598856,0,-1.9508584738,7.9181833267,-0.1091710782,-0.0631444608,-1.68200326,1752,1486,1515,1518,15.2209997177,13.232421875,201.410689624
48.4977519512,0.2504330277,-0.0329856612,-0.0794689357,0,-1.9299820662,9.0555610657,-0.191613184,-0.0608943729,-1.6836985532,1752,1485,1515,1518,15.2159996033,12.841796875,195.400776155
48.599750042,0.5277522206,-0.064774707,-0.084589079,0,-0.5062432289,9.4533367157,-0.291601634,-0.0621544945,-1.6854270781,1710,1488,1515,1518,15.2159996033,12.59765625,191.685932502
48.698786974,0.7917409539,-0.0990087315,-0.0991754904,0,0.9119904637,10.5253582001,-0.3414664118,-0.0631116871,-1.6866769102,1711,1485,1515,1518,15.2069997787,14.013671875,213.105905103
48.8008630276,1.0350500345,-0.1269721836,-0.1159381345,0,0.1425414234,10.7708282471,-0.3816963345,-0.0652291482,-1.6877337218,1711,1485,1515,1518,15.2069997787,14.794921875,224.98637368
48.8992729187,1.3608273268,-0.1740703285,-0.1301787794,0,2.4781267643,7.8898506165,-0.4148584434,-0.0667470935,-1.6898590787,1702,1485,1515,1518,15.2069997787,15.380859375,233.896725113
49.0011589527,1.8444987536,-0.2291254401,-0.1441882998,0,-0.0635467246,9.7718372345,-0.4406238243,-0.0686345088,-1.6938548981,1497,1492,1515,1518,15.1969995499,10.15625,154.344526678
49.0998048782,2.0875253677,-0.2563951314,-0.2427024692,0,-0.9531108737,10.6207304001,-0.2259839449,-0.0718821606,-1.6979389786,1486,1488,1515,1521,15.1969995499,13.232421875,201.093109278
49.2019240856,2.1113197804,-0.2563315928,-0.2483549118,0,0.5824617743,8.7752866745,-0.0806932506,-0.071539374,-1.6994126986,1486,1485,1515,1518,15.1969995499,12.451171875,189.22045338
49.3005709648,1.997989893,-0.2409272045,-0.2358743846,0,1.3858710527,10.6964063644,0.1238038314,-0.0666975315,-1.7006822158,1486,1485,1515,1518,15.1999998093,14.111328125,214.492184808
49.4026908875,1.6040225029,-0.1914925575,-0.2671076953,0,-0.7580575347,5.9235806465,0.3403029937,-0.0694045284,-1.7007834539,1486,1485,1515,1518,15.1999998093,14.599609375,221.914059715
49.5010919571,1.1782879829,-0.1600501984,-0.3122771084,0,-2.0975692272,9.1329269409,0.3269957653,-0.068925504,-1.6942052742,1486,1488,1515,1518,15.1929998398,13.28125,201.782029122
49.6033768654,0.9003931284,-0.1273087114,-0.3282892406,0,1.9899047613,5.5781431198,0.2722436721,-0.0705008863,-1.6920069608,1486,1488,1515,1518,15.1929998398,14.2578125,216.618943028
49.7016649246,0.6836143732,-0.107852526,-0.3491540551,0,-3.9492766857,11.0365104675,0.2192294659,-0.0705646935,-1.6926067057,1486,1488,1515,1518,15.1920003891,13.232421875,201.026958274
49.8044030666,0.4052112997,-0.0760699511,-0.3535228968,0,0.8219450712,10.1066675186,0.1445837079,-0.070187388,-1.6964668657,1486,1488,1515,1518,15.1920003891,12.548828125,190.641801758
49.9024550915,0.2756536603,-0.0509883463,-0.3492365777,0,-1.7779426575,10.7423915863,0.1059425385,-0.0726627428,-1.7017348833,1487,1485,1515,1518,15.1949996948,14.453125,219.615229964
50.0048520565,0.1825084686,-0.0358300358,-0.3528756499,0,-1.5489430428,9.8269939423,0.0896934038,-0.0733463209,-1.7034635872,1486,1488,1515,1518,15.1949996948,12.841796875,195.131099597
50.103153944,0.0787709728,-0.0156189613,-0.34264189,0,-0.6645225883,7.0530877113,0.0645382674,-0.0711868963,-1.7051682474,1494,1488,1515,1518,15.1949996948,11.865234375,180.292232707
50.2054760456,0.0268199816,-0.005406376,-0.3322973847,0,-1.2243850231,8.6843290329,0.0513316803,-0.0724322706,-1.7064413535,1535,1487,1515,1518,15.1969995499,12.841796875,195.156781329
50.3042800426,0.0102684684,-0.0065045981,-0.3229820728,0,0.7652263045,6.2013320923,-0.0055096163,-0.0728331921,-1.7076564538,1702,1485,1515,1518,15.1969995499,13.623046875,207.029437227
50.4060909748,0.0574982539,-0.0094445981,-0.2793255746,0,1.0035415888,10.7134561539,-0.0798617779,-0.073226505,-1.7059716288,1750,1485,1515,1518,15.1969995499,14.74609375,224.096380081
50.5047059059,0.1752529591,-0.0219049286,-0.2312549949,0,1.8732289076,11.3896379471,-0.162644972,-0.0722179622,-1.7023971221,1764,1486,1515,1518,15.1859998703,14.35546875,218.002146576
50.6069750786,0.4493963718,-0.0638798103,-0.1643202752,0,-1.0164000988,13.026889801,-0.2599468605,-0.070772915,-1.6964290908,1765,1484,1515,1518,15.1859998703,15.673828125,238.022751873
50.7091839314,0.773443222,-0.1077646688,-0.1048474163,0,-1.2714602947,11.9942216873,-0.3281153065,-0.067642419,-1.6933388277,1765,1486,1515,1518,15.1590003967,14.697265625,222.79585544
50.8077819347,1.0342288017,-0.1462144852,-0.0594038405,0,0.4337553382,9.9251585007,-0.3555814573,-0.0671617519,-1.6920347762,1764,1486,1515,1518,15.1590003967,16.015625,242.780865729
50.909870863,1.5403649807,-0.2180733085,0.00871001,0,-0.2440644503,11.3402175903,-0.396608883,-0.0704531911,-1.6893724189,1764,1486,1515,1518,15.1400003433,15.625,236.562505364
51.0082468987,1.9087539911,-0.2747641206,0.0425285771,0,-1.8104565144,12.1064014435,-0.4191350439,-0.0729699834,-1.6885774548,1764,1486,1515,1518,15.1400003433,14.74609375,223.255864438
51.1109819412,2.2960562706,-0.322127521,0.0577717721,0,-0.2518765926,8.4987392426,-0.4536276638,-0.0750993753,-1.6877520373,1764,1486,1515,1518,15.1400003433,12.451171875,188.510746462
51.2090940475,2.6620743275,-0.3694408834,0.0372523181,0,-2.709530592,9.4499816895,-0.4778227177,-0.0769553403,-1.6865394275,1688,1489,1515,1518,15.1330003738,8.251953125,124.876809726
51.3115808964,2.8997776508,-0.4037919939,-0.0142432805,0,-0.6115864515,9.5260028839,-0.4383712473,-0.0762171202,-1.6871299825,1510,1491,1515,1518,15.1330003738,11.279296875,170.689603826
51.4097549915,3.0913939476,-0.4357156754,-0.0993413255,0,0.4526266158,10.3265657425,-0.108780679,-0.0805454223,-1.6893765124,1488,1485,1515,1518,15.1330003738,13.037109375,197.290581046
51.5123889446,2.9301242828,-0.3999451697,-0.0893435627,0,-1.2495731115,9.3284549713,0.1489164801,-0.0791564493,-1.6911095682,1488,1485,1515,1518,15.1520004272,13.916015625,210.855474696
51.6102628708,2.7909007072,-0.3802827299,-0.0823566839,0,-1.806065321,6.3923950195,0.2522172434,-0.0777006229,-1.6920963481,1487,1485,1515,1518,15.1520004272,16.162109375,244.888288155
51.7129530907,2.3555879593,-0.3315871656,-0.0934316963,0,0.9424356222,9.5437984467,0.4036887774,-0.0783706026,-1.6931370251,1487,1485,1515,1518,15.1400003433,14.794921875,223.995122267
51.8111510277,1.7682346106,-0.2764682472,-0.1666573435,0,-0.170958966,9.106798172,0.4481398811,-0.080461077,-1.6903796764,1488,1485,1515,1518,15.1400003433,12.451171875,188.510746462
51.9133219719,1.2377207279,-0.2257473916,-0.1828599423,0,-0.7490198016,11.9368562698,0.3355697155,-0.0769484625,-1.6820994299,1488,1486,1515,1518,15.1400003433,13.818359375,209.209965682
52.011756897,0.9396703243,-0.1989635974,-0.1829059571,0,-0.4473092854,10.8402757645,0.2658908073,-0.0830174097,-1.6820126239,1487,1485,1515,1518,15.1219997406,10.595703125,160.228219908
52.1141440868,0.7205364704,-0.1744681895,-0.2058827132,0,-0.6560827494,7.3415675163,0.2144421988,-0.0868278786,-1.6823467277,1487,1485,1515,1518,15.1219997406,14.111328125,213.391500246
52.2127859592,0.5476546884,-0.1494646966,-0.2200552821,0,-0.6344650984,8.5613536835,0.1630366038,-0.0876040525,-1.6838807867,1488,1488,1515,1518,15.1219997406,10.986328125,166.135251056
52.3152360916,0.388159126,-0.1116790101,-0.2432017773,0,1.3721523285,7.990735054,0.1312487665,-0.0964669978,-1.689845043,1488,1485,1515,1518,15.1319999695,11.62109375,175.85039027
52.4133450985,0.2845436633,-0.0669800416,-0.2341213375,0,2.6213350296,10.4702768326,0.1158092513,-0.1011982648,-1.696503417,1488,1485,1515,1518,15.1319999695,12.451171875,188.411132433
52.5158269405,0.1784924418,-0.0234158561,-0.2253423184,0,-0.3605619073,10.9843082428,0.1004047132,-0.0995477487,-1.7042044317,1488,1488,1515,1518,15.1379995346,14.794921875,223.965520458
52.613986969,0.1386967748,-0.0008854739,-0.2202012688,0,-0.4252297878,7.1912593842,0.0930363684,-0.0994291947,-1.707464733,1488,1485,1515,1518,15.1379995346,14.013671875,212.138958322
52.7165760994,0.0257852469,0.0523895286,-0.175190255,0,0.5972036719,10.2451114655,0.0774310103,-0.0941103689,-1.7120832287,1489,1488,1515,1518,15.1379995346,12.451171875,188.485834049
52.8145289421,-0.0455798209,0.0797819197,-0.1348044872,0,0.3455744088,7.9828829765,0.0689013771,-0.088466766,-1.7110914882,1490,1488,1515,1518,15.142999649,13.8671875,209.990815446
52.9171729088,-0.0922481641,0.1029754058,-0.089060396,0,-1.4170079231,10.8945207596,0.0623135508,-0.085451304,-1.7038234263,1506,1487,1515,1518,15.142999649,12.6953125,192.245112732
53.0152189732,-0.1419815272,0.1195350811,-0.0700114518,0,2.2214484215,8.8522310257,0.0540762579,-0.0845259781,-1.6959883128,1568,1486,1515,1518,15.1440000534,13.623046875,206.307422603
53.117825985,-0.1207544655,0.1167767271,-0.0576528236,0,-1.7273842096,11.1418924332,-0.0136148266,-0.0707731454,-1.6863321673,1658,1485,1515,1518,15.1440000534,13.623046875,206.307422603
53.2160248756,0.1011975035,0.080726862,0.0415885225,0,1.6540675163,11.5621814728,-0.2371758122,-0.051020827,-1.6710696739,1751,1484,1515,1518,15.138999939,14.208984375,215.109813586
53.3186619282,0.3766249716,0.0271749254,0.0845425799,0,1.0161376,10.604678154,-0.3838572417,-0.0403947529,-1.6636288595,1764,1484,1515,1518,15.138999939,14.794921875,223.980321363
53.416697979,0.7716123462,-0.0279583484,0.1076733619,0,0.1864106953,9.4105148315,-0.440531014,-0.0386237207,-1.6601972376,1764,1486,1515,1518,15.138999939,17.1875,260.201561451
53.5191810131,1.2746680975,-0.1209188551,0.1403957456,0,-2.2302365303,9.0321731567,-0.4658434347,-0.0406258583,-1.6618566053,1764,1484,1515,1518,15.1239995956,15.576171875,235.574017139
53.6174669266,1.6852889061,-0.1859605908,0.1636484861,0,2.1298727989,13.015914917,-0.4734829586,-0.0476205268,-1.6640840541,1764,1484,1515,1518,15.1239995956,13.720703125,207.511908514
53.7200958729,2.2909085751,-0.2548238933,0.1792028993,0,0.1677039564,12.3622016907,-0.4947526626,-0.0597455709,-1.672370758,1763,1484,1515,1518,15.1009998322,15.185546875,229.316940811
53.8180389404,2.6947546005,-0.3101538122,0.1519407481,0,-1.7196679115,8.6451005936,-0.5195604421,-0.0671684849,-1.6813567495,1755,1484,1515,1518,15.1009998322,11.865234375,179.176902305
53.9203879833,3.079788208,-0.3646660149,0.1028687805,0,-1.4488130808,7.9592046738,-0.5048478461,-0.0717237032,-1.6886952027,1681,1489,1515,1518,15.1009998322,10.986328125,165.904539172
54.0189659595,3.3437592983,-0.3943507373,0.0060369777,0,0.4142402709,9.3656263351,-0.3944210777,-0.0749246536,-1.6941723624,1489,1489,1515,1518,15.1040000916,12.5,188.800001144
54.1209468842,3.461083889,-0.3872385621,-0.0432683267,0,-0.7354539037,11.5280656815,-0.0593346533,-0.0705620117,-1.7008643874,1488,1489,1515,1518,15.1040000916,13.18359375,199.125001207
54.2193450928,3.320151329,-0.366093725,-0.0285772234,0,-0.6126958132,11.6043157578,0.1738182797,-0.0665210781,-1.7030896166,1488,1485,1515,1518,15.1040000916,14.013671875,211.662501283
54.3218638897,2.8664865494,-0.3095314801,-0.035118226,0,-0.4513291419,12.205701828,0.4108000996,-0.0607451527,-1.7052599981,1488,1485,1515,1518,15.1169996262,16.30859375,246.537005622
54.4200699329,2.4147574902,-0.2602874041,-0.078197971,0,2.2620010376,8.1590385437,0.510669841,-0.0578101859,-1.7070263548,1488,1485,1515,1518,15.1169996262,14.013671875,211.844672495
54.5223889351,1.9731378555,-0.216535762,-0.1668953449,0,-4.3309626579,9.0603075028,0.4989610407,-0.0597860852,-1.7087506225,1488,1485,1515,1518,15.109000206,15.771484375,238.291360671
54.6212120056,1.377479434,-0.1433268636,-0.1919302642,0,-3.3671634197,12.7361650467,0.382937274,-0.0604292327,-1.7040304386,1488,1488,1515,1518,15.109000206,14.55078125,219.847756904
54.7231988907,1.0648103952,-0.0926266909,-0.1895852536,0,-2.0360336304,7.8243808746,0.2900332709,-0.0646156534,-1.6985621705,1488,1485,1515,1518,15.109000206,11.81640625,178.534084465
54.821657896,0.8179559708,-0.0550969541,-0.1759775728,0,1.2184181213,7.9227457047,0.2305019308,-0.0608044921,-1.6917418231,1488,1488,1515,1518,15.107000351,11.1328125,168.183402345
54.9241499901,0.5482293367,-0.0220553614,-0.169051826,0,1.0279521942,10.155412674,0.1508956749,-0.0583891366,-1.6819148483,1488,1485,1515,1518,15.107000351,12.060546875,182.198685873
55.022589922,0.4057506025,-0.0082894461,-0.1665142775,0,0.1688611656,12.3373365402,0.1270465862,-0.0601621931,-1.6763826633,1488,1485,1515,1518,15.107000351,12.353515625,186.624564882
55.1244320869,0.3000521064,-0.0022337614,-0.1579101086,0,0.2839125991,11.6101884842,0.1055570705,-0.0568954662,-1.6695526773,1488,1486,1515,1518,15.1309995651,13.427734375,203.175042989
55.2230520248,0.1608593017,0.0063098092,-0.1288873851,0,-0.7299966216,12.0634813309,0.0828877936,-0.061167572,-1.6599654701,1488,1485,1515,1518,15.1309995651,11.865234375,179.532856168
55.3253018856,0.1092120111,0.0108940275,-0.0944440812,0,0.4652404189,9.1656198502,0.071454062,-0.0618721075,-1.6550351172,1488,1486,1515,1518,15.1289997101,13.623046875,206.103072222
55.4237010479,0.0110076778,0.0224604867,-0.038372539,0,-2.6492912769,11.5117616653,0.0503674249,-0.0702818902,-1.6455524596,1488,1485,1515,1518,15.1289997101,13.28125,200.9320274
55.5260760784,-0.038396515,0.0394463129,0.0211834423,0,0.1992052943,11.2161340714,0.039571093,-0.0769787935,-1.6402278376,1488,1485,1515,1518,15.126999855,13.818359375,209.030320263
55.6245510578,-0.0936464891,0.0619800873,0.0924174041,0,-0.5784582496,13.387008667,0.0282447108,-0.0804947552,-1.6386647822,1488,1485,1515,1518,15.126999855,12.59765625,190.564744268
55.7268879414,-0.1167630181,0.068759352,0.1212585941,0,-0.967852056,10.5104093552,0.0221499246,-0.0834122034,-1.6403133786,1532,1488,1515,1518,15.126999855,14.599609375,220.848288899
55.8256828785,-0.1330127567,0.082412757,0.1442509145,0,0.9853672981,11.6711463928,0.014819279,-0.0839083042,-1.6433472229,1599,1488,1515,1518,15.1260004044,14.404296875,217.879400356
55.9274179935,-0.042176228,0.0669338182,0.1785077155,0,1.4625148773,11.424451828,-0.1049811392,-0.0687982093,-1.6504184151,1720,1486,1515,1518,15.1260004044,15.625,236.343756318
56.0261690617,0.1558438987,0.0349014699,0.2337981164,0,0.4499940276,12.4005823135,-0.2877874264,-0.0538682986,-1.6616128085,1752,1484,1515,1518,15.1160001755,14.84375,224.378127605
56.1283740997,0.6440148354,-0.0381199084,0.2927828133,0,1.4385648966,8.0593900681,-0.4049022292,-0.0531123865,-1.6736096637,1752,1484,1515,1518,15.1160001755,14.208984375,214.783010306
56.2263178825,0.826144278,-0.0740481764,0.2964046896,0,-0.5111550689,10.1122646332,-0.4162369454,-0.0545224177,-1.6759827857,1752,1484,1515,1518,15.1160001755,14.794921875,223.640041659
56.3292579651,1.4229010344,-0.1466404498,0.3262429833,0,-1.8391129971,12.8935518265,-0.4499052437,-0.0603765797,-1.6808734399,1752,1484,1515,1518,15.1099996567,14.208984375,214.697749028
56.4271020889,1.9550129175,-0.2145016789,0.3231583238,0,-2.3447768688,11.1888751984,-0.4744555806,-0.0593353635,-1.682645547,1752,1484,1515,1518,15.1099996567,16.015625,241.996088251
56.5296800137,2.2119319439,-0.2488552332,0.3175892532,0,-0.2445176542,15.5691194534,-0.4871613345,-0.0608911852,-1.6797648445,1752,1484,1515,1518,15.1099996567,16.845703125,254.538568435
56.6280069351,2.7264635563,-0.3090109229,0.2775338292,0,-0.850223124,12.0006780624,-0.5044330453,-0.05458087,-1.6737017906,1752,1484,1515,1518,15.1000003815,10.9375,165.156254172
56.7303550243,3.1525804997,-0.3638284206,0.2237051129,0,0.6519894004,12.4160633087,-0.4817349235,-0.0472732191,-1.6698136793,1751,1484,1515,1518,15.1000003815,12.451171875,188.012700062
56.8285689354,3.4316060543,-0.3874999583,0.1882676631,0,-1.8218337297,9.7281713486,-0.4095142381,-0.0464758542,-1.6641478316,1740,1484,1515,1518,15.0989999771,11.669921875,176.204150124
56.9308300018,3.7239060402,-0.4326567352,0.1141269505,0,-1.4316350222,10.2077331543,-0.274121598,-0.0514982026,-1.6597479331,1578,1489,1515,1518,15.0989999771,10.546875,159.247265384
57.0299270153,3.76740551,-0.4322881401,0.0371186994,0,-2.5404527187,8.0350446701,0.0132592841,-0.069275037,-1.6591148372,1489,1490,1515,1518,15.1180000305,15.087890625,228.098730929
57.1316730976,3.5991306305,-0.4135594964,0.0495838001,0,0.1294703484,9.2442331314,0.1734717042,-0.0727593179,-1.6630754691,1488,1489,1515,1520,15.1180000305,14.6484375,221.455078572
57.2301089764,3.2947432995,-0.3769160211,0.0483298674,0,-3.3127772808,12.4599456787,0.3293603776,-0.0751029794,-1.6719240549,1488,1487,1515,1518,15.1180000305,18.65234375,281.986133382
57.3321950436,2.8964931965,-0.338914454,0.0508178733,0,-2.7372369766,6.4172029495,0.4704084045,-0.0726792512,-1.6817409703,1488,1486,1515,1518,15.1120004654,15.576171875,235.387116624
57.4308269024,2.2271776199,-0.271638006,-0.0009460053,0,-1.1088328362,11.6966075897,0.5184737478,-0.0658213341,-1.68646576,1488,1488,1515,1518,15.1120004654,14.35546875,216.939850431
57.533356905,1.7331968546,-0.2268608809,-0.0682963431,0,-1.6714457274,13.0962572098,0.4644320416,-0.0635540962,-1.6868240984,1488,1488,1515,1518,15.0889997482,12.939453125,195.243404945
57.631289959,1.2796880007,-0.1839455813,-0.0835021436,0,-3.3613774777,8.0811624527,0.3595508283,-0.0656069761,-1.687010561,1488,1488,1515,1518,15.0889997482,12.5,188.612496853
57.7335839272,0.9656839371,-0.1472494453,-0.1217378601,0,-0.5140566826,11.8687362671,0.2974083088,-0.0675702248,-1.6864279945,1488,1488,1515,1518,15.0889997482,12.744140625,192.296334682
57.8323299885,0.6727024913,-0.1158348173,-0.1458983868,0,2.3299164772,7.2765350342,0.2085792696,-0.068481756,-1.6837116439,1488,1488,1515,1518,15.107000351,12.6953125,191.788090393
57.9344558716,0.5056600571,-0.0947134122,-0.1493414193,0,-0.2404193133,9.9939031601,0.1499176162,-0.0725953855,-1.679904145,1488,1488,1515,1518,15.107000351,11.083984375,167.445755843
58.0334460735,0.3614329696,-0.0807417631,-0.160136506,0,-1.9646197557,10.1974563599,0.125643509,-0.0839125408,-1.6782091111,1488,1488,1515,1521,15.107000351,11.669921875,176.297513861
58.1361539364,0.2422668785,-0.0538436323,-0.1443103105,0,-1.9650423527,10.8844604492,0.1025218754,-0.0875874705,-1.6774411485,1488,1485,1515,1518,15.1210002899,13.18359375,199.349124916
58.2337648869,0.0995463654,-0.0194358248,-0.1333998442,0,-1.2725075483,7.3087639809,0.0717772637,-0.0878049528,-1.6786661262,1488,1488,1515,1518,15.1210002899,12.841796875,194.18081427
58.335903883,0.0338237546,0.0084297871,-0.1245398,0,-0.0022070615,9.1405115128,0.0494334807,-0.0904865229,-1.6825293193,1487,1485,1515,1518,15.1210002899,11.62109375,175.722561963
58.4341099262,-0.032154426,0.0444545075,-0.1376484036,0,0.4087639153,9.6253166199,0.0288960943,-0.0875190093,-1.6901969796,1486,1485,1515,1518,15.1210002899,12.109375,183.105862886
58.5364410877,-0.0546920747,0.065928258,-0.1352401078,0,0.0293695889,10.0443954468,0.0171422027,-0.0855550175,-1.6971616072,1485,1488,1515,1518,15.1210002899,12.744140625,192.704154085
58.6350488663,-0.0685892999,0.0710290968,-0.1302900016,0,-1.4414237738,9.1711788178,0.0094688346,-0.0803879169,-1.704784545,1485,1488,1515,1518,15.1300001144,12.548828125,189.863770967
58.7371919155,-0.0763730705,0.0736313537,-0.11697115,0,-0.8887633681,10.9706659317,0.002904536,-0.0755021272,-1.7190617287,1413,1488,1515,1518,15.1300001144,13.330078125,201.684083557
58.8355519772,-0.0990124568,0.072372891,-0.0778861195,0,-0.2734975517,7.7262644768,0.0220532901,-0.0581909585,-1.7320751462,1263,1490,1515,1518,15.1359996796,13.57421875,205.45937065
58.9379088879,-0.0990124568,0.072372891,-0.0778861195,0,-1.2647528648,9.0780315399,0.0220532901,-0.0581909585,-1.7320751462,1233,1488,1515,1520,15.1359996796,11.865234375,179.592183698
59.0366270542,-0.2863650024,0.0627768859,-0.0133456923,0,-2.6430211067,13.5259199142,0.1628614736,-0.0461948702,-1.7446394618,1202,1489,1515,1518,15.1359996796,14.990234375,226.892182697
59.1385998726,-0.5921720266,0.0673389286,0.036442928,0,0.344604224,11.8213624954,0.2711235513,-0.052777403,-1.7437648195,1200,1488,1515,1518,15.126999855,17.1875,259.995310009
59.2372360229,-0.8567766547,0.0976227224,0.0930717736,0,0.2923237681,11.6172885895,0.3316626935,-0.0528708932,-1.7371511677,1198,1488,1515,1518,15.126999855,17.138671875,259.256686969
59.3393468857,-1.1666344404,0.1276077628,0.1261677891,0,-0.7814723849,11.9440584183,0.369041291,-0.0564470076,-1.7341249405,1198,1488,1515,1518,15.109000206,16.748046875,253.046243684
59.4377989769,-1.5055453777,0.1697270721,0.1533805877,0,1.8030422926,11.8475370407,0.3965507919,-0.0618552491,-1.7337463412,1196,1490,1515,1518,15.109000206,15.576171875,235.340384068
59.5401370525,-2.0708668232,0.2578376234,0.2050777823,0,3.4194457531,10.0250902176,0.4314395235,-0.0639060735,-1.7349745306,1197,1488,1515,1518,15.109000206,15.966796875,241.242337273
59.638379097,-2.2739439011,0.2828964889,0.2024605572,0,0.0874731913,9.5531959534,0.4445600055,-0.0672072114,-1.7376540184,1197,1488,1515,1518,15.0810003281,16.357421875,246.686284663
59.7410020828,-2.8240888119,0.3825747073,0.2504355609,0,0.4050741494,11.8835792542,0.4584642575,-0.0641954738,-1.7395963992,1197,1490,1515,1518,15.0810003281,18.359375,276.877740398
59.8401429653,-3.2334265709,0.4516671896,0.2653019726,0,1.6671209335,6.6863851547,0.4732940514,-0.0596085291,-1.7375018011,1197,1490,1515,1518,15.0810003281,15.625,235.640630126
59.9412848949,-3.8005855084,0.521977365,0.2801555991,0,1.6349432468,8.9459886551,0.4782743366,-0.0514574025,-1.7332186376,1200,1490,1515,1518,15.0539999008,16.943359375,255.065330351
60.0402209759,-4.1758871079,0.5806605816,0.2768789232,0,0.7536860108,7.4145040512,0.43657401,-0.0549067507,-1.7348098667,1202,1488,1515,1518,15.0539999008,14.55078125,219.047459494
60.1419670582,-4.4363427162,0.6136710048,0.2490832061,0,2.5388298035,8.199710846,0.3636026627,-0.0613428232,-1.7371193474,1231,1488,1515,1518,15.045999527,13.525390625,203.503020946
60.2405230999,-4.6176190376,0.6502315998,0.2500534654,0,-0.0688925236,7.0821967125,0.3100440788,-0.0628924772,-1.737183018,1286,1487,1515,1518,15.045999527,13.18359375,198.360345326
60.3433868885,-4.7441978455,0.6650277972,0.2372482717,0,0.2166775316,9.3205251694,0.146498644,-0.0668750892,-1.7346319526,1377,1485,1515,1518,15.0530004501,13.57421875,204.332720954
60.4411599636,-4.6577563286,0.6682773232,0.2677417398,0,0.2574214935,7.1605939865,-0.10760944,-0.0685008471,-1.7336788753,1448,1485,1515,1518,15.0530004501,13.28125,199.922662228
60.5436079502,-4.3513073921,0.6341151595,0.2855882347,0,1.967201829,13.5502958298,-0.2983639091,-0.0738693923,-1.730464223,1486,1485,1515,1518,15.0579996109,15.185546875,228.663958935
60.6418030262,-3.9943604469,0.5996932983,0.2696810067,0,2.5392656326,9.5232782364,-0.4613630863,-0.0841331894,-1.7249677435,1486,1488,1515,1518,15.0579996109,16.748046875,252.192083327
60.7445139885,-3.1907484531,0.5159890652,0.2252521217,0,-0.5375807881,15.2940692902,-0.6061161428,-0.0906805932,-1.7198649832,1488,1488,1515,1518,15.0579996109,8.3984375,126.463668607
60.8435370922,-2.3729476929,0.4310250282,0.1671400517,0,-0.2820990086,8.9138803482,-0.5742036647,-0.0796528991,-1.7248345487,1488,1488,1515,1518,15.0290002823,14.306640625,215.014505992
60.9447720051,-1.8434869051,0.3640978932,0.1489810944,0,1.1923764944,7.8343811035,-0.4807253504,-0.0684126535,-1.726864236,1489,1488,1515,1518,15.0290002823,14.697265625,220.885209227
61.0433089733,-1.6310433149,0.3318471313,0.14197281,0,-1.5319632292,8.7826452255,-0.4221905243,-0.0617111866,-1.7269532542,1489,1486,1515,1518,15.0290002823,13.037109375,195.934720477
61.1454229355,-1.0941665173,0.2543591261,0.1606973559,0,1.7168176174,10.5005807877,-0.3062363317,-0.0503633769,-1.7181395588,1489,1486,1515,1518,15.015999794,14.013671875,210.429293988
61.2441749573,-0.7407760024,0.2063916624,0.1805777401,0,-2.7337753773,7.7607374191,-0.2173739212,-0.0432872849,-1.7061863531,1489,1488,1515,1518,15.015999794,13.916015625,208.962887758
61.3461480141,-0.5774385333,0.1905431449,0.1891163588,0,1.8248499632,11.4315624237,-0.1625561732,-0.039511901,-1.6990537971,1489,1488,1515,1518,15.0240001678,12.548828125,188.533595856
61.444560051,-0.4490314126,0.1814731807,0.2014858276,0,-0.1036128178,8.0154399872,-0.12774001,-0.0352801254,-1.6912229423,1488,1488,1515,1518,15.0240001678,12.451171875,187.06640834
61.5472989082,-0.3539082706,0.1595273763,0.1845811307,0,-0.7134578824,7.3541970253,-0.1048715312,-0.0280790957,-1.686572286,1488,1488,1515,1518,15.0240001678,13.330078125,200.271095987
61.6456389427,-0.2568849325,0.1339267343,0.1873770505,0,0.9228325486,12.496257782,-0.07911797,-0.016686918,-1.6827356818,1488,1488,1515,1521,15.0469999313,13.134765625,197.638817457
61.7476899624,-0.1918381155,0.102920197,0.1942236125,0,-0.2284746617,10.8151416779,-0.0681912829,-0.0165183816,-1.6821415274,1488,1488,1515,1518,15.0469999313,12.3046875,185.148631968
61.8502550125,-0.141977638,0.0645551756,0.1928564012,0,0.0874181464,10.3283433914,-0.0554519793,-0.0159940819,-1.6866590124,1488,1486,1515,1518,15.0539999008,12.79296875,192.585350294
61.9490110874,-0.117240563,0.0341330133,0.2032565624,0,-0.469484508,8.8049917221,-0.0471644837,-0.0164737842,-1.6932567007,1488,1488,1515,1518,15.0539999008,13.18359375,198.465819005
62.0506300926,-0.0951575786,0.0105500249,0.1855782568,0,-0.1124081388,10.6736602783,-0.042730366,-0.0198608505,-1.6986581189,1488,1488,1515,1518,15.0539999008,13.427734375,202.141111949
62.1490399837,-0.0742976815,-0.0108065279,0.1671939343,0,0.2898597717,7.2422728539,-0.0425994778,-0.0180265452,-1.703326721,1488,1488,1515,1518,15.0609998703,13.623046875,205.176707217
62.2513670921,-0.0515567884,-0.0411639027,0.1348293722,0,-0.1922361106,10.2436094284,-0.0350454922,-0.0181120855,-1.7107006978,1399,1488,1515,1518,15.0609998703,13.8671875,208.853709139
62.3503060341,-0.0724288598,-0.0516769662,0.094219774,0,1.5635035038,7.7531490326,0.0324576408,-0.0410233627,-1.7162179564,1293,1492,1515,1518,15.0850000381,14.794921875,223.181397049
62.4520790577,-0.1281531453,-0.0388046503,0.0693042874,0,-0.5870245695,9.6824970245,0.0986972659,-0.0508621443,-1.7193529369,1293,1492,1515,1518,15.0850000381,12.5,188.562500477
62.5506460667,-0.3582155705,0.0138481902,0.0203816649,0,-2.0401952267,12.3531990051,0.2292798645,-0.0540334507,-1.7195627362,1215,1491,1515,1520,15.0850000381,13.232421875,199.611084489
62.652643919,-0.5856807828,0.0515778176,-0.0003715644,0,-0.5024976134,10.9060277939,0.2881613586,-0.0523175642,-1.7174210851,1202,1490,1515,1518,15.0979995728,12.5,188.724994659
62.751103878,-0.8338748813,0.0903467909,-0.030671224,0,-0.2776030898,9.6650238037,0.336274352,-0.0527987364,-1.7144368039,1199,1491,1515,1518,15.0979995728,13.720703125,207.155169919
62.8534140587,-1.1530040503,0.1284960359,-0.0483937934,0,0.8131986856,8.4615402222,0.378262001,-0.0519971506,-1.7087504727,1199,1489,1515,1518,15.095000267,14.84375,224.066410214
62.9519388676,-1.477720499,0.1744483709,-0.0555292331,0,-1.2766107321,10.5259904861,0.4050339878,-0.0525355093,-1.7060669107,1200,1490,1515,1518,15.095000267,14.697265625,221.855228534
63.0542180538,-1.9926882982,0.2389044911,-0.0628639981,0,-1.2647161484,9.1949663162,0.431657172,-0.0535743225,-1.7050333681,1212,1490,1515,1518,15.095000267,14.208984375,214.484622935
63.1524059772,-2.3864097595,0.2932675183,-0.059352424,0,0.4243038893,6.8580913544,0.4448591702,-0.0538010229,-1.7053595254,1225,1490,1515,1518,15.0799999237,15.966796875,240.779295657
63.2547879219,-2.9750192165,0.3591402173,-0.0327809043,0,-2.0261223316,7.2975769043,0.4611504969,-0.0537330428,-1.7050053187,1265,1488,1515,1518,15.0799999237,13.134765625,198.072264623
63.3532280922,-3.1486976147,0.3739874661,-0.0527035519,0,0.1484659314,8.9942321777,0.4413300871,-0.056672692,-1.7051765484,1310,1486,1515,1518,15.0659999847,13.037109375,196.417089645
63.4558279514,-3.4902420044,0.4121192694,-0.0681327358,0,-1.1440672875,12.7808485031,0.2075855051,-0.0652141094,-1.7024492107,1359,1488,1515,1518,15.0659999847,13.232421875,199.359667767
63.5540890694,-3.5125377178,0.4038424194,-0.005294471,0,0.7420832515,9.5287561417,0.0117375184,-0.0654949029,-1.6982909122,1458,1485,1515,1518,15.0659999847,14.013671875,211.129980255
63.6565670967,-3.2347369194,0.3663843274,0.0508283339,0,0.2465839684,10.2507839203,-0.2699563401,-0.0668580133,-1.6930749878,1484,1486,1515,1518,15.0649995804,16.748046875,252.309319144
63.7550449371,-2.9003221989,0.3213612139,0.0437958948,0,-1.322283864,8.3349704742,-0.430412955,-0.0615234786,-1.698371957,1486,1485,1515,1518,15.0649995804,15.625,235.390618443
63.8574459553,-2.333211422,0.25270468,0.0340499356,0,-0.8461523652,7.2214922905,-0.5230422053,-0.0619720909,-1.7042993642,1488,1487,1514,1518,15.0539999008,18.75,282.26249814
63.9562149048,-1.7148684263,0.1743727922,-0.0403868295,0,-0.4717487097,13.7075710297,-0.4533604396,-0.0729411828,-1.7095012873,1488,1486,1515,1518,15.0539999008,15.625,235.21874845
64.0581719875,-1.3036733866,0.1233296245,-0.0553962849,0,1.8195382357,6.0500984192,-0.3600422108,-0.070658951,-1.7147875668,1488,1488,1515,1518,15.0539999008,16.30859375,245.509568695
64.1560020447,-1.0093173981,0.0774212852,-0.0287104137,0,-0.174634546,13.2935113907,-0.2919602888,-0.0636366143,-1.7192366653,1488,1486,1515,1518,15.0500001907,13.8671875,208.70117452
64.2591879368,-0.722551465,0.0315102898,-0.0203769784,0,3.8217356205,14.7524757385,-0.206823265,-0.065487265,-1.7223901556,1488,1488,1515,1518,15.0500001907,13.525390625,203.557131486
64.3568110466,-0.440210849,-0.0022970329,-0.0053333356,0,0.8530843258,8.3804445267,-0.1293419087,-0.0653656107,-1.7278670956,1488,1487,1515,1521,15.0659999847,13.427734375,202.302245889
64.4590749741,-0.3152545094,-0.0136600398,-0.0044856034,0,1.2031297684,11.4607419968,-0.098652926,-0.0679989669,-1.7267973106,1488,1488,1515,1518,15.0659999847,12.451171875,187.589355279
64.5575499535,-0.220137015,-0.0219793282,0.0051017702,0,1.6164106131,9.1278839111,-0.0788250415,-0.0669139958,-1.7225556156,1488,1488,1515,1518,15.0659999847,14.453125,217.750781029
64.6599719524,-0.1496619582,-0.0308863502,0.0121996403,0,-1.3849782944,10.2329959869,-0.04898311,-0.0648732037,-1.7138622583,1488,1488,1515,1518,15.0640001297,13.37890625,201.539845485
64.7580959797,-0.080760695,-0.0368953869,0.0251334496,0,0.0571289994,11.7831010818,-0.0270102692,-0.0694028851,-1.7012421367,1489,1488,1515,1518,15.0640001297,15.8203125,238.317189552
64.8604819775,-0.049098134,-0.0313390233,0.0417245664,0,-1.4198721647,7.2387075424,-0.0200877832,-0.0692469467,-1.6970103025,1488,1488,1515,1518,15.0640001297,12.548828125,189.035548503
64.9593069553,-0.0358165354,-0.0366392508,0.0319103487,0,2.2434263229,11.5285587311,-0.008481449,-0.0730036354,-1.6924779624,1489,1488,1515,1518,15.0640001297,12.890625,194.184376672
65.0614888668,-0.0173373856,-0.0273730699,0.0330797844,0,0.4934818447,11.7819252014,-0.0004864678,-0.0775055443,-1.6877002586,1489,1488,1515,1518,15.0640001297,12.255859375,184.622267215
65.1594898701,-0.01195715,-0.0108219339,0.0335947573,0,-0.7808772922,8.732088089,0.0047395317,-0.0787492379,-1.6850234078,1489,1488,1515,1518,15.0830001831,13.818359375,208.422316983
65.2620460987,-0.0081723845,-0.0027978865,0.0341850482,0,0.32731089,12.9783067703,0.0078171721,-0.0791313591,-1.6828175271,1488,1488,1515,1518,15.0830001831,11.5234375,173.808009923
65.3603050709,-0.0161766037,0.0171850342,0.0300633162,0,0.3254742622,5.677031517,0.0139375888,-0.0834675322,-1.6819716512,1489,1488,1515,1520,15.0830001831,13.037109375,196.63872309
65.4625210762,-0.0194413885,0.0225362815,0.0310348812,0,-0.7904828191,12.2734575272,0.0137348223,-0.0786747826,-1.6827473251,1490,1488,1515,1518,15.0839996338,12.20703125,184.130854905
65.5616998672,-0.0344829261,0.0309276469,0.0096303904,0,0.9339484572,7.4907460213,0.0166616114,-0.087099814,-1.6850024679,1495,1488,1515,1518,15.0839996338,13.427734375,202.543940395
65.6634218693,-0.0153618297,0.0400220677,-0.0349108353,0,-1.043135643,8.3751869202,-0.0078708408,-0.0767831327,-1.6877137159,1622,1485,1515,1518,15.0889997482,14.013671875,211.452291394
65.7619569302,0.0730083212,0.0262629241,0.001778028,0,-0.2817418873,11.9120111465,-0.1260340126,-0.0561209583,-1.6889478991,1706,1486,1515,1518,15.0889997482,12.841796875,193.769869814
65.8641898632,0.1600897461,0.0137664489,0.027317984,0,2.6022088528,12.6674633026,-0.2137384915,-0.0501163795,-1.6904363704,1706,1486,1515,1518,15.0889997482,12.841796875,193.769869814
65.9624199867,0.6585647464,-0.0992724448,0.0205938332,0,0.7441615462,9.1503152847,-0.3572996083,-0.05302103,-1.6917753776,1757,1486,1515,1518,15.0830001831,14.208984375,214.31411393
66.064759016,0.9918264747,-0.1572940797,0.008390517,0,-0.5563381314,10.8882932663,-0.4097922305,-0.0649377826,-1.6900828733,1761,1484,1515,1520,15.0830001831,14.990234375,226.097707823
66.1632289886,1.3342554569,-0.2089593112,-0.0076859687,0,-0.0171928387,11.6348896027,-0.4311993547,-0.0692512206,-1.6912607341,1761,1484,1514,1518,15.0839996338,15.576171875,234.950970858
66.2656440735,1.7310694456,-0.2575172484,-0.0103189144,0,0.8657513261,11.9239521027,-0.4512608609,-0.0703256851,-1.6946002418,1762,1486,1515,1518,15.0839996338,14.794921875,223.166596144
66.3636469841,2.3433475494,-0.3301953375,-0.0121316649,0,-0.8472298384,12.765370369,-0.4663516804,-0.074267633,-1.6988471997,1762,1486,1515,1518,15.0839996338,15.33203125,231.26835376
66.4662740231,2.7063694,-0.3643527329,-0.0100155557,0,0.796249032,11.6283493042,-0.4725689087,-0.0805341407,-1.7021537594,1761,1484,1515,1518,15.0659999847,14.0625,211.865624785
66.5647530556,3.09532094,-0.407990694,-0.0324064083,0,-1.8936377764,8.2250452042,-0.4772908654,-0.0853693107,-1.7059009814,1757,1484,1515,1518,15.0659999847,13.96484375,210.394335724
66.6666409969,3.4504804611,-0.4495164454,-0.0874608457,0,0.170887351,9.7599582672,-0.4334808938,-0.0872857634,-1.7137910766,1755,1486,1515,1518,15.0530004501,13.28125,199.922662228
66.7653779984,3.8005087376,-0.4901137054,-0.1399257183,0,-0.67155689,11.4696388245,-0.3234189153,-0.0867961128,-1.7221571494,1704,1488,1515,1518,15.0530004501,11.279296875,169.787260937
66.8675010204,3.917879343,-0.5094450712,-0.1943016052,0,-1.7834882736,12.6943883896,-0.1561494388,-0.079036344,-1.7261332994,1539,1490,1515,1518,15.0620002747,12.5,188.275003433
66.9661719799,3.9356529713,-0.5104278922,-0.2167496234,0,-1.225758791,8.1021080017,-0.1220338876,-0.0769279134,-1.7263401422,1488,1489,1515,1518,15.0620002747,12.744140625,191.952249594
67.0686109066,3.5863742828,-0.4764458835,-0.248242721,0,-0.1115222871,7.9782929421,0.2688399788,-0.0648270465,-1.7246848474,1488,1489,1515,1518,15.0620002747,14.453125,217.69297272
67.1669209003,3.2015476227,-0.4416030943,-0.2669941187,0,-0.2994375229,7.0970978737,0.4392388582,-0.0628818037,-1.7206050692,1487,1489,1514,1518,15.0690002441,16.015625,241.339457035
67.2693600655,2.7301006317,-0.4027917385,-0.2848823667,0,-0.6799634695,11.4635257721,0.5280752697,-0.0634099181,-1.7197557872,1488,1488,1515,1518,15.0690002441,15.966796875,240.603666008
67.3670599461,1.9768950939,-0.3204266429,-0.3889020681,0,3.9779698849,9.9704580307,0.5150016585,-0.0696781616,-1.7188458677,1488,1488,1515,1518,15.0690002441,13.232421875,199.399368465
67.4695460796,1.57343328,-0.2795855999,-0.4264993072,0,-1.3327323198,8.4824151993,0.4446187308,-0.0718519537,-1.7140966606,1488,1488,1515,1518,15.0530004501,14.013671875,210.947809042
67.5687670708,1.1795808077,-0.2312035859,-0.4482268095,0,-0.195271641,11.3933591843,0.3458996643,-0.079765442,-1.7085384604,1488,1488,1515,1518,15.0530004501,12.158203125,183.017437113
67.670361042,0.8828159571,-0.1856907755,-0.4587709308,0,-0.9699229598,10.6216039658,0.2702460105,-0.0840903888,-1.7011483639,1487,1488,1515,1518,15.0579996109,13.037109375,196.312787896
67.7688910961,0.8828159571,-0.1856907755,-0.4587709308,0,-1.1280498505,7.3507304192,0.2702460105,-0.0840903888,-1.7011483639,1488,1488,1515,1518,15.0579996109,13.57421875,204.400580656
67.8710649014,0.5188897252,-0.1249798462,-0.4641552866,0,0.7001826763,11.3481006622,0.1463588913,-0.0850236588,-1.68905626,1487,1488,1515,1518,15.0620002747,13.037109375,196.364944987
67.9699540138,0.4111162722,-0.1089911982,-0.4565825164,0,-0.953414619,11.7881441116,0.1226152232,-0.0853226637,-1.685318338,1488,1488,1515,1518,15.0620002747,13.916015625,209.603031166
68.0716049671,0.2585861683,-0.0646168441,-0.4137220979,0,0.2247817218,10.8350734711,0.0912450972,-0.0885340451,-1.6791892833,1488,1486,1515,1518,15.0620002747,13.525390625,203.719437309
68.1704580784,0.167920664,-0.0313694812,-0.3428817093,0,0.8211702704,12.1663818359,0.0736234841,-0.08316006,-1.6725536425,1489,1489,1515,1518,15.0679998398,13.96484375,210.422263388
68.2724108696,0.1103455797,-0.008580829,-0.2982113063,0,-0.9968519807,9.7833547592,0.0645679463,-0.0803611191,-1.6687081548,1493,1489,1515,1518,15.0679998398,14.013671875,211.158005567
68.3707568645,0.0834378675,-0.0045494074,-0.2742911279,0,1.0667523146,10.9633722305,0.0615277918,-0.0766390527,-1.6668819538,1493,1489,1515,1518,15.0710000992,14.794921875,222.974269046
68.4734349251,0.0184549242,0.0129277809,-0.1912057847,0,-1.289370656,11.7623939514,0.0506386421,-0.0645232893,-1.6628082618,1497,1489,1515,1518,15.0710000992,13.427734375,202.369386097
68.5719730854,-0.056260325,0.0016650807,-0.1405863017,0,2.1312580109,12.1957387924,0.0400220101,-0.0639203317,-1.6608067651,1555,1488,1515,1518,15.0710000992,14.794921875,222.974269046
68.6737968922,-0.0247932505,-0.0102818348,-0.1190596595,0,-0.0656245574,7.1671991348,-0.0294071612,-0.0642583669,-1.6597599421,1719,1484,1515,1518,15.0690002441,12.451171875,187.626712024
68.7721180916,0.1402367353,-0.0387166813,-0.0255444497,0,-2.7542061806,10.1296138763,-0.2122045969,-0.058338477,-1.6603260427,1765,1484,1515,1518,15.0690002441,14.404296875,217.058353126
68.8744809628,0.4545148611,-0.0855374932,0.0262915734,0,1.5355248451,8.5882701874,-0.3132282077,-0.0573915462,-1.6642489809,1767,1485,1515,1518,15.0570001602,15.576171875,234.530422417
68.9730980396,0.7173244953,-0.1180021316,0.044695165,0,-0.6681960225,10.8335857391,-0.3731335615,-0.061359861,-1.6693582591,1767,1485,1514,1518,15.0570001602,16.064453125,241.882473277
69.0752120018,1.3040231466,-0.1819075644,0.0878027454,0,-2.2262692452,11.739235878,-0.41881702,-0.0683745539,-1.6806920257,1765,1484,1515,1518,15.0430002213,14.84375,223.294534534
69.1734290123,1.4686897993,-0.1987122148,0.0994611904,0,-3.7444460392,11.6560878754,-0.4276562947,-0.0692403625,-1.6846864831,1765,1483,1515,1518,15.0430002213,14.94140625,224.763577525
69.2761950493,2.0517814159,-0.2547429502,0.1359573007,0,-1.4751186371,9.1944322586,-0.452831284,-0.0756597287,-1.695568556,1764,1484,1515,1518,15.0430002213,16.357421875,246.064700885
69.3743839264,2.4489574432,-0.2926404178,0.1600838006,0,-1.156003952,9.1497335434,-0.4579615914,-0.0770879142,-1.7021528996,1761,1484,1515,1518,15.0310001373,17.67578125,265.684670396
69.4769189358,3.0605914593,-0.3752936125,0.1654515564,0,-0.069649592,13.1743497849,-0.4736123061,-0.0786917199,-1.7103856352,1757,1484,1515,1518,15.0310001373,12.79296875,192.291115038
69.5754079819,3.209651947,-0.3995620608,0.1384472251,0,-0.1920655668,10.3298196793,-0.4521547853,-0.0797113705,-1.7126651312,1728,1485,1515,1518,15.0310001373,11.62109375,174.676661752
69.6774909496,3.5731494427,-0.45165205,0.0648332015,0,-0.8947127461,6.8960723877,-0.2943891503,-0.0844082142,-1.718867914,1568,1491,1515,1518,15.0209999084,12.060546875,181.161473505
69.7755348682,3.6173558235,-0.4846716523,0.0123032518,0,-2.4056594372,7.4788575172,-0.1139185357,-0.0745728179,-1.7233004754,1535,1491,1515,1518,15.0399999619,11.5234375,173.31249956
69.8780870438,3.4312386513,-0.4669295847,-0.0045006792,0,-0.2281437069,9.0400400162,0.1801668497,-0.0663888973,-1.7244745947,1489,1488,1515,1518,15.0399999619,14.84375,223.249999434
69.9763650894,3.1697232723,-0.4430685937,-0.0171745103,0,-1.6127176285,8.4198331833,0.3271928059,-0.0695403618,-1.7225748574,1488,1489,1515,1518,15.0399999619,16.259765625,244.54687438
70.0785548687,2.7139656544,-0.4062252045,-0.0419002324,0,-0.5708448887,12.7663459778,0.4809512617,-0.0692953964,-1.7168818557,1488,1487,1515,1518,15.0410003662,15.283203125,229.8746638
70.1776540279,1.9493565559,-0.3360927701,-0.1316115707,0,1.8970116377,9.9937028885,0.4997473668,-0.0826156464,-1.7113507405,1488,1487,1515,1518,15.0410003662,14.013671875,210.779643804
70.279638052,1.5349155664,-0.27111727,-0.1560242027,0,0.4935820401,12.9197807312,0.4340416775,-0.0882249787,-1.7072774406,1488,1486,1515,1518,15.0240001678,13.037109375,195.869533438
70.3780128956,1.1925971508,-0.2163951099,-0.1701042354,0,0.7068183422,11.4711179733,0.3418478798,-0.0917384849,-1.6990711808,1488,1486,1515,1518,15.0240001678,12.890625,193.668752164
70.4806039333,0.7976911068,-0.1237384826,-0.1996386796,0,-0.1253260374,13.3853673935,0.2364193008,-0.0903727395,-1.6846493843,1488,1487,1515,1518,15.0310001373,15.380859375,231.189699378
70.578854084,0.6000065207,-0.0774958134,-0.2192887515,0,-0.3392156959,11.7167272568,0.1820696386,-0.0838296455,-1.6753988383,1489,1487,1515,1518,15.0310001373,12.59765625,189.355372824
70.681014061,0.4406990409,-0.0332042575,-0.2027553618,0,1.8584731817,11.588183403,0.1378093582,-0.0804528472,-1.6678832288,1501,1489,1515,1518,15.0310001373,13.916015625,209.17163277
70.7801289558,0.3243112564,-0.0024686297,-0.2196454704,0,0.3374325633,10.3330659866,0.1041358736,-0.0785560875,-1.6633670829,1578,1486,1515,1518,15.0310001373,11.474609375,172.474855091
70.8820559978,0.2204937339,0.0373665281,-0.2304104567,0,-0.5361275673,7.5557069778,0.0131079644,-0.0713330167,-1.6642308241,1610,1488,1515,1518,15.0349998474,14.2578125,214.366208762
70.9799969196,0.223184064,0.0420781821,-0.2123654187,0,-2.6181828976,10.3257131577,-0.0158429894,-0.066923544,-1.665042591,1647,1485,1515,1518,15.0349998474,12.841796875,193.076414056
71.0821559429,0.3496741354,0.0343829989,-0.1833790243,0,-0.0589858331,7.5980982781,-0.1568447743,-0.0549049872,-1.6691028849,1663,1486,1515,1518,15.0369997025,14.013671875,210.723579815
71.180991888,0.6848702431,-0.0130903143,-0.1248762384,0,-1.6040285826,9.2703008652,-0.2667156407,-0.0492138806,-1.6759979009,1681,1486,1515,1518,15.0369997025,14.599609375,219.534321828
71.2830579281,0.9551420212,-0.0534123108,-0.088382788,0,-1.383816123,12.3525209427,-0.3303675344,-0.0493294,-1.6804346432,1682,1485,1515,1518,15.0369997025,14.892578125,223.939692834
71.3817410469,1.2677459717,-0.0976484194,-0.0621123724,0,-0.35678339,12.638674736,-0.3666758947,-0.052044069,-1.6815197295,1682,1485,1515,1518,15.029999733,18.310546875,275.207514642
71.4839498997,1.6078290939,-0.1454601884,-0.037856508,0,-0.1369220763,7.4408378601,-0.391562197,-0.0550515529,-1.6830604036,1682,1486,1515,1518,15.029999733,15.234375,228.972652182
71.5818879604,1.9920908213,-0.1935880333,-0.0087171905,0,-2.2251207829,8.9804916382,-0.3484173392,-0.0545706138,-1.6896766385,1682,1485,1515,1518,15.0150003433,13.232421875,198.684818996
71.6846609116,2.2976367474,-0.2358351499,0.0329142734,0,1.3358345032,11.2737083435,-0.2682804061,-0.0539291384,-1.6979484525,1680,1485,1515,1520,15.0150003433,14.55078125,218.479985464
71.7827689648,2.451764822,-0.2552033961,0.0430105999,0,-0.3635845482,8.9529495239,-0.2178592484,-0.0584588124,-1.7027214833,1676,1485,1515,1518,15.0150003433,14.2578125,214.081059583
71.8854749203,2.6296491623,-0.2854822278,0.0529901423,0,0.0063068145,11.203253746,-0.1422022171,-0.0598275978,-1.7118225941,1657,1485,1515,1520,15.0170001984,11.181640625,167.914699484
71.9836928844,2.6846323013,-0.3043662608,0.0136209661,0,-2.3050708771,8.7764854431,-0.076200644,-0.0597534782,-1.7174237187,1644,1485,1515,1518,15.0170001984,12.6953125,190.645510331
72.0860829353,2.675662756,-0.3144847453,-0.0213220399,0,0.3022376299,10.8117322922,0.0103115292,-0.0590192061,-1.7225893701,1644,1485,1515,1518,15.0170001984,12.060546875,181.113234814
72.1845829487,2.6088249683,-0.306455344,-0.0431592613,0,-1.061275959,8.5845813751,0.0652700073,-0.0599336713,-1.7261859724,1591,1486,1515,1518,15.0270004272,12.6953125,190.772466362
72.286864996,2.3402864933,-0.2749755681,-0.0818697587,0,-0.4193108976,5.4231262207,0.2578045709,-0.055579511,-1.7284628027,1562,1486,1515,1518,15.0270004272,13.96484375,209.849712998
72.3847548962,2.0500538349,-0.2421361357,-0.1013342217,0,-1.4315140247,10.4765424728,0.3191163025,-0.0539485672,-1.7284424885,1547,1487,1515,1518,15.0329999924,13.134765625,197.45493154
72.4872338772,1.5366616249,-0.194151774,-0.1395167112,0,-0.1863449514,11.2807712555,0.3751932022,-0.0524870281,-1.7294411886,1529,1489,1515,1518,15.0329999924,13.818359375,207.731396379
72.5855078697,1.3790730238,-0.1822739244,-0.1641880125,0,0.7899310589,8.3004436493,0.368862083,-0.0529191225,-1.7297871875,1502,1488,1515,1518,15.0329999924,12.255859375,184.242333891
72.6880118847,0.9320396781,-0.1456856132,-0.2025571764,0,-1.2184898853,10.9203681946,0.2819588458,-0.0568094558,-1.7350411458,1489,1488,1515,1518,15.0380001068,12.5,187.975001335
72.7901608944,0.6751241684,-0.125475958,-0.2240143269,0,0.1197774932,7.2249984741,0.2095661497,-0.0607940162,-1.743660427,1487,1486,1515,1518,15.0380001068,12.3046875,185.037891939
72.8886020184,0.5720940828,-0.1106480509,-0.2208812684,0,0.3067244291,10.7635288239,0.1664265638,-0.0623712795,-1.7496082628,1488,1488,1515,1518,15.0380001068,12.939453125,194.583497476
72.9907798767,0.3985597491,-0.0831898227,-0.2268319577,0,-1.5326993465,9.3552017212,0.1187162609,-0.0755030419,-1.7642908138,1488,1488,1515,1518,15.0500001907,12.060546875,181.511232769
73.0893700123,0.3493787646,-0.0707641095,-0.2356553078,0,2.7647881508,7.4498920441,0.1129336585,-0.0771519934,-1.7666375091,1488,1488,1515,1518,15.0500001907,12.841796875,193.269045418
73.1914720535,0.2315027416,-0.0268123858,-0.2257674485,0,0.3836278021,5.6905403137,0.0902271168,-0.0808046745,-1.7706675927,1487,1488,1515,1518,15.0590000153,13.671875,205.884765834
73.290211916,0.153506577,0.011641318,-0.1984236538,0,-0.2001384348,7.5065684319,0.0744858555,-0.0850698045,-1.7703145194,1486,1485,1515,1518,15.0590000153,13.671875,205.884765834
73.3924880028,0.1036373377,0.0429690145,-0.1912622452,0,0.4400427639,7.3917908669,0.0713106309,-0.0888596586,-1.7680620082,1483,1485,1515,1518,15.0590000153,12.255859375,184.560986515
73.4905309677,0.0664055794,0.0871861205,-0.1366146803,0,-0.7471055985,11.2219896317,0.0651991416,-0.0797380819,-1.7634968792,1483,1485,1515,1518,15.0590000153,12.841796875,193.384619337
73.5928890705,0.0467229187,0.0940590724,-0.1359825134,0,-1.5419511795,10.8690929413,0.0648790088,-0.0779984788,-1.761571166,1479,1488,1515,1518,15.0590000153,13.818359375,208.090674039
73.6914188862,0.0075131212,0.1264697909,-0.0640022457,0,0.9815726876,14.4258069992,0.0565180903,-0.0728872247,-1.7549410311,1454,1488,1515,1518,15.0530004501,14.013671875,210.947809042
73.7936389446,-0.0172067191,0.1400855035,-0.0067029335,0,0.3902115822,8.1485176086,0.0513811718,-0.0720988532,-1.7460781032,1445,1488,1515,1518,15.0530004501,15.4296875,232.263092883
73.8919279575,-0.0353016853,0.1387277991,0.045549944,0,0.3090358078,10.4297599792,0.0247354191,-0.0573266215,-1.7385547364,1418,1486,1515,1518,15.0530004501,15.869140625,238.878180971
73.9943060875,-0.0739225224,0.1313309669,0.1217837781,0,2.0289063454,15.9818134308,0.0702424049,-0.0384222217,-1.7223403683,1402,1488,1515,1518,15.0489997864,13.623046875,205.013229512
74.0926070213,-0.16490753,0.1153052375,0.1692772359,0,0.5212520361,9.1754264832,0.1190826873,-0.035119848,-1.7094200877,1392,1486,1515,1518,15.0489997864,14.208984375,213.831002824
74.1950888634,-0.3135132492,0.104005903,0.21784468,0,1.799602747,9.8288383484,0.1831262506,-0.0473400892,-1.6861863965,1389,1486,1515,1518,15.0469999313,14.404296875,216.741454089
74.2932729721,-0.4723252654,0.0936091542,0.2498947233,0,0.5542567372,11.4084873199,0.1925511816,-0.0547438303,-1.6712334595,1382,1488,1515,1518,15.0469999313,12.060546875,181.475048
74.3956608772,-0.7020834684,0.0882032737,0.2850540578,0,1.3673341274,9.7022180557,0.1930773775,-0.0693914154,-1.6447652247,1379,1488,1515,1518,15.0469999313,15.4296875,232.170506753
74.494287014,-0.8335764408,0.086432077,0.2927744091,0,-0.5252861381,11.5613260269,0.1843843264,-0.078256906,-1.6326752155,1379,1488,1515,1518,15.0480003357,13.427734375,202.060551383
74.5964000225,-1.0186582804,0.0854591131,0.31499663,0,2.2239258289,11.3434772491,0.1504201617,-0.0790222072,-1.6206381041,1379,1488,1515,1518,15.0480003357,12.841796875,193.243363686
74.6950490475,-1.1166228056,0.0681436211,0.3239039481,0,0.7451313138,10.494093895,0.1223787348,-0.082185245,-1.618613132,1379,1488,1515,1518,15.0500001907,11.865234375,178.571779607
74.7976438999,-1.155729413,0.0743759125,0.32008937,0,0.6830341816,10.5814552307,0.1161607368,-0.083326926,-1.6193240613,1379,1488,1515,1518,15.0500001907,12.5,188.125002384
74.8955440521,-1.2667380571,0.0814929605,0.3093804717,0,0.0480931476,10.9025859833,0.0850354113,-0.0874890764,-1.6299293904,1379,1488,1515,1518,15.0500001907,11.767578125,177.102053026
74.9977900982,-1.320543766,0.0924043357,0.3040167987,0,-1.8761888742,8.1158809662,0.0724853837,-0.0836456453,-1.6383402292,1379,1488,1515,1521,15.0670003891,14.306640625,215.558159864
75.0960640907,-1.3784064055,0.0890636668,0.2828781307,0,-1.6672437191,8.2232780457,0.0591016801,-0.0819563598,-1.6518057092,1377,1488,1515,1518,15.0670003891,12.255859375,184.659037972
75.1985020638,-1.4096912146,0.091531992,0.2722713649,0,-0.0026964475,8.9121236801,0.056095934,-0.0836050593,-1.6613538106,1371,1488,1515,1518,15.0679998398,12.939453125,194.971677614
75.2973001003,-1.4491738081,0.0855299979,0.2616686225,0,1.3549075127,10.3675384521,0.0763730847,-0.0845854578,-1.6658039827,1368,1488,1515,1518,15.0679998398,12.40234375,186.878513638
75.3991200924,-1.5458283424,0.0954293758,0.2193003744,0,0.5028083324,9.7759790421,0.1194005375,-0.090381263,-1.6721163115,1358,1488,1515,1518,15.0679998398,13.427734375,202.329099411
75.4975600243,-1.628054738,0.1032874882,0.230957821,0,1.7230852842,8.186375618,0.1339485858,-0.0886303541,-1.6765003301,1339,1488,1515,1518,15.0690002441,11.62109375,175.118264556
75.5998909473,-1.7327941656,0.1051337197,0.211293608,0,0.549873054,7.4557471275,0.1791085367,-0.0911338367,-1.683670692,1328,1488,1515,1518,15.0690002441,14.0625,211.907815933
75.6980469227,-1.8660303354,0.1191688776,0.2013838291,0,-1.8769569397,10.7667045593,0.1963303626,-0.0958880085,-1.6912796432,1328,1488,1515,1518,15.0690002441,10.791015625,162.609817088
75.800688982,-2.0694231987,0.162148729,0.1934896111,0,2.7206676006,13.2594718933,0.212091865,-0.0993284507,-1.7011005583,1314,1486,1515,1521,15.0699996948,13.0859375,197.205074131
75.8991129398,-2.233052969,0.1833589822,0.1989143938,0,-0.6206949353,7.8334965706,0.2470199333,-0.0939150895,-1.7076205826,1300,1486,1515,1518,15.0699996948,12.060546875,181.752437726
76.0012888908,-2.4825377464,0.2077751756,0.2087034583,0,1.5946708918,8.1121778488,0.2547542098,-0.0912351146,-1.7104739093,1296,1487,1515,1518,15.0670003891,12.5,188.337504864
76.1001889706,-2.6699893475,0.2390018851,0.2262741625,0,1.0283316374,10.4964437485,0.237202839,-0.0922792104,-1.7112140482,1291,1486,1515,1518,15.0670003891,13.232421875,199.372905539
76.2019560337,-2.8351597786,0.2704728544,0.2523463666,0,-0.7063375711,8.5632791519,0.2307756927,-0.0925467247,-1.7128949187,1283,1486,1515,1518,15.0530004501,13.330078125,200.657672016
76.3002519608,-2.9807593823,0.2970113158,0.244782269,0,-2.8722009659,12.5613479614,0.2379833628,-0.0938819195,-1.7151107426,1271,1489,1515,1518,15.0530004501,13.232421875,199.187652441
76.402723074,-3.1464121342,0.3130204082,0.2589377165,0,-2.9674906731,10.6777496338,0.2485278669,-0.0891195137,-1.7145533829,1262,1486,1515,1518,15.0530004501,13.8671875,208.74277968
76.5015978813,-3.3725430965,0.3449617326,0.2505203187,0,-1.6007906199,12.323674202,0.254731267,-0.0991623265,-1.7155997703,1258,1487,1515,1518,15.0530004501,12.890625,194.042583928
76.6034998894,-3.527077198,0.3794220388,0.2730143666,0,0.820558846,13.6198072433,0.2489365076,-0.0989207506,-1.7153824005,1250,1487,1515,1518,15.0530004501,14.404296875,216.827887343
76.7020289898,-3.7673823834,0.4057267606,0.2771323621,0,3.5667281151,8.5713233948,0.2830934547,-0.098941225,-1.7156553584,1222,1487,1515,1518,15.0489997864,15.869140625,238.814693876
76.8044500351,-3.9757826328,0.4427623749,0.264664501,0,2.2038784027,5.4377779961,0.3345178936,-0.1001177068,-1.7165855075,1204,1489,1515,1518,15.0489997864,15.234375,229.262106121
