timestamp,vel_x,vel_y,vel_z,acc_x,acc_y,acc_z,roll,pitch,yaw,rc0,rc1,rc2,rc3,vol,cur_raw,cur,power
3.00253582001,0.0243892110884,0.000838626292534,-0.0130531862378,-0.287741184235,-0.157803878188,9.77104949951,-0.0144553622296,0.0317977812144,0.60672695914,1489,1488,1108,1523,16.3500003815,25,-23.779296875,-388.791512978
3.00271081924,0.0243892110884,0.000838626292534,-0.0130531862378,-0.287741184235,-0.157803878188,9.77104949951,-0.0144553622296,0.0317977812144,0.60672695914,1489,1488,1108,1523,16.3500003815,524,0.5859375,9.58007834854
3.00286197662,0.0243892110884,0.000838626292534,-0.0130531862378,-0.287741184235,-0.157803878188,9.77104949951,-0.0144553622296,0.0317977812144,0.60672695914,1489,1488,1108,1523,16.3500003815,527,0.732421875,11.9750979357
3.00303483009,0.0243892110884,0.000838626292534,-0.0130531862378,-0.287741184235,-0.157803878188,9.77104949951,-0.0144553622296,0.0317977812144,0.60672695914,1489,1488,1108,1523,16.3500003815,528,0.78125,12.773437798
3.00317287445,0.0243892110884,0.000838626292534,-0.0130531862378,-0.287741184235,-0.157803878188,9.77104949951,-0.0144553622296,0.0317977812144,0.60672695914,1489,1488,1108,1523,16.3500003815,525,0.634765625,10.3784182109
3.00332093239,0.0243892110884,0.000838626292534,-0.0130531862378,-0.287741184235,-0.157803878188,9.77104949951,-0.0144553622296,0.0317977812144,0.60672695914,1489,1488,1108,1523,16.3500003815,524,0.5859375,9.58007834854
3.00345993042,0.0243892110884,0.000838626292534,-0.0130531862378,-0.287741184235,-0.157803878188,9.77104949951,-0.0144553622296,0.0317977812144,0.60672695914,1489,1488,1108,1523,16.3500003815,524,0.5859375,9.58007834854
3.00359892845,0.0243892110884,0.000838626292534,-0.0130531862378,-0.287741184235,-0.157803878188,9.77104949951,-0.0144553622296,0.0317977812144,0.60672695914,1489,1488,1108,1523,16.3500003815,523,0.537109375,8.78173848616
3.00373601913,0.0243892110884,0.000838626292534,-0.0130531862378,-0.287741184235,-0.157803878188,9.77104949951,-0.0144553622296,0.0317977812144,0.60672695914,1489,1488,1108,1523,16.3500003815,524,0.5859375,9.58007834854
3.00387382507,0.0243892110884,0.000838626292534,-0.0130531862378,-0.287741184235,-0.157803878188,9.77104949951,-0.0144553622296,0.0317977812144,0.60672695914,1489,1488,1108,1523,16.3500003815,522,0.48828125,7.98339862378
3.00401091576,0.0243892110884,0.000838626292534,-0.0130531862378,-0.287741184235,-0.157803878188,9.77104949951,-0.0144553622296,0.0317977812144,0.60672695914,1489,1488,1108,1523,16.3500003815,523,0.537109375,8.78173848616
3.00414991379,0.0243892110884,0.000838626292534,-0.0130531862378,-0.287741184235,-0.157803878188,9.77104949951,-0.0144553622296,0.0317977812144,0.60672695914,1489,1488,1108,1523,16.3500003815,527,0.732421875,11.9750979357
3.00428700447,0.0243892110884,0.000838626292534,-0.0130531862378,-0.287741184235,-0.157803878188,9.77104949951,-0.0144553622296,0.0317977812144,0.60672695914,1489,1488,1108,1523,16.3500003815,526,0.68359375,11.1767580733
3.00443887711,0.0243892110884,0.000838626292534,-0.0130531862378,-0.287741184235,-0.157803878188,9.77104949951,-0.0144553622296,0.0317977812144,0.60672695914,1489,1488,1108,1523,16.3500003815,524,0.5859375,9.58007834854
3.00457692146,0.0243892110884,0.000838626292534,-0.0130531862378,-0.287741184235,-0.157803878188,9.77104949951,-0.0144553622296,0.0317977812144,0.60672695914,1489,1488,1108,1523,16.3500003815,527,0.732421875,11.9750979357
3.00471496582,0.0243892110884,0.000838626292534,-0.0130531862378,-0.287741184235,-0.157803878188,9.77104949951,-0.0144553622296,0.0317977812144,0.60672695914,1489,1488,1108,1523,16.3500003815,527,0.732421875,11.9750979357
3.00485301018,0.0243892110884,0.000838626292534,-0.0130531862378,-0.287741184235,-0.157803878188,9.77104949951,-0.0144553622296,0.0317977812144,0.60672695914,1489,1488,1108,1523,16.3500003815,523,0.537109375,8.78173848616
3.00499081612,0.0243892110884,0.000838626292534,-0.0130531862378,-0.287741184235,-0.157803878188,9.77104949951,-0.0144553622296,0.0317977812144,0.60672695914,1489,1488,1108,1523,16.3500003815,527,0.732421875,11.9750979357
3.00512886047,0.0243892110884,0.000838626292534,-0.0130531862378,-0.287741184235,-0.157803878188,9.77104949951,-0.0144553622296,0.0317977812144,0.60672695914,1489,1488,1108,1523,16.3500003815,530,0.87890625,14.3701175228
3.00526690483,0.0243892110884,0.000838626292534,-0.0130531862378,-0.287741184235,-0.157803878188,9.77104949951,-0.0144553622296,0.0317977812144,0.60672695914,1489,1488,1108,1523,16.3500003815,528,0.78125,12.773437798
3.00547385216,0.0243892110884,0.000838626292534,-0.0130531862378,-0.287741184235,-0.157803878188,9.77104949951,-0.0144553622296,0.0317977812144,0.60672695914,1489,1488,1108,1523,16.3500003815,525,0.634765625,10.3784182109
3.0055680275,0.0243892110884,0.000838626292534,-0.0130531862378,-0.287741184235,-0.157803878188,9.77104949951,-0.0144553622296,0.0317977812144,0.60672695914,1489,1488,1108,1523,16.3500003815,2,-24.90234375,-407.153329813
3.00570583344,0.0243892110884,0.000838626292534,-0.0130531862378,-0.287741184235,-0.157803878188,9.77104949951,-0.0144553622296,0.0317977812144,0.60672695914,1489,1488,1108,1523,16.3500003815,524,0.5859375,9.58007834854
3.00584387779,0.0243892110884,0.000838626292534,-0.0130531862378,-0.287741184235,-0.157803878188,9.77104949951,-0.0144553622296,0.0317977812144,0.60672695914,1489,1488,1108,1523,16.3500003815,527,0.732421875,11.9750979357
3.00598096848,0.0243892110884,0.000838626292534,-0.0130531862378,-0.287741184235,-0.157803878188,9.77104949951,-0.0144553622296,0.0317977812144,0.60672695914,1489,1488,1108,1523,16.3500003815,526,0.68359375,11.1767580733
3.00611901283,0.0243892110884,0.000838626292534,-0.0130531862378,-0.287741184235,-0.157803878188,9.77104949951,-0.0144553622296,0.0317977812144,0.60672695914,1489,1488,1108,1523,16.3500003815,529,0.830078125,13.5717776604
3.00625681877,0.0243892110884,0.000838626292534,-0.0130531862378,-0.287741184235,-0.157803878188,9.77104949951,-0.0144553622296,0.0317977812144,0.60672695914,1489,1488,1108,1523,16.3500003815,525,0.634765625,10.3784182109
3.00649189949,0.0243892110884,0.000838626292534,-0.0130531862378,-0.287741184235,-0.157803878188,9.77104949951,-0.0144553622296,0.0317977812144,0.60672695914,1489,1488,1108,1523,16.3500003815,524,0.5859375,9.58007834854
3.00665593147,0.0243892110884,0.000838626292534,-0.0130531862378,-0.287741184235,-0.157803878188,9.77104949951,-0.0144553622296,0.0317977812144,0.60672695914,1489,1488,1108,1523,16.3500003815,527,0.732421875,11.9750979357
3.0067949295,0.0243892110884,0.000838626292534,-0.0130531862378,-0.287741184235,-0.157803878188,9.77104949951,-0.0144553622296,0.0317977812144,0.60672695914,1489,1488,1108,1523,16.3500003815,528,0.78125,12.773437798
3.00693297386,0.0243892110884,0.000838626292534,-0.0130531862378,-0.287741184235,-0.157803878188,9.77104949951,-0.0144553622296,0.0317977812144,0.60672695914,1489,1488,1108,1523,16.3500003815,525,0.634765625,10.3784182109
3.00707197189,0.0243892110884,0.000838626292534,-0.0130531862378,-0.287741184235,-0.157803878188,9.77104949951,-0.0144553622296,0.0317977812144,0.60672695914,1489,1488,1108,1523,16.3500003815,524,0.5859375,9.58007834854
3.00720882416,0.0243892110884,0.000838626292534,-0.0130531862378,-0.287741184235,-0.157803878188,9.77104949951,-0.0144553622296,0.0317977812144,0.60672695914,1489,1488,1108,1523,16.3500003815,524,0.5859375,9.58007834854
3.00735592842,0.0243892110884,0.000838626292534,-0.0130531862378,-0.287741184235,-0.157803878188,9.77104949951,-0.0144553622296,0.0317977812144,0.60672695914,1489,1488,1108,1523,16.3500003815,523,0.537109375,8.78173848616
3.00749397278,0.0243892110884,0.000838626292534,-0.0130531862378,-0.287741184235,-0.157803878188,9.77104949951,-0.0144553622296,0.0317977812144,0.60672695914,1489,1488,1108,1523,16.3500003815,524,0.5859375,9.58007834854
3.00763201714,0.0243892110884,0.000838626292534,-0.0130531862378,-0.287741184235,-0.157803878188,9.77104949951,-0.0144553622296,0.0317977812144,0.60672695914,1489,1488,1108,1523,16.3500003815,522,0.48828125,7.98339862378
3.0077688694,0.0243892110884,0.000838626292534,-0.0130531862378,-0.287741184235,-0.157803878188,9.77104949951,-0.0144553622296,0.0317977812144,0.60672695914,1489,1488,1108,1523,16.3500003815,523,0.537109375,8.78173848616
3.00790691376,0.0243892110884,0.000838626292534,-0.0130531862378,-0.287741184235,-0.157803878188,9.77104949951,-0.0144553622296,0.0317977812144,0.60672695914,1489,1488,1108,1523,16.3500003815,527,0.732421875,11.9750979357
3.00805997849,0.0243892110884,0.000838626292534,-0.0130531862378,-0.287741184235,-0.157803878188,9.77104949951,-0.0144553622296,0.0317977812144,0.60672695914,1489,1488,1108,1523,16.3500003815,526,0.68359375,11.1767580733
3.00820398331,0.0243892110884,0.000838626292534,-0.0130531862378,-0.287741184235,-0.157803878188,9.77104949951,-0.0144553622296,0.0317977812144,0.60672695914,1489,1488,1108,1523,16.3500003815,524,0.5859375,9.58007834854
3.00836086273,0.0243892110884,0.000838626292534,-0.0130531862378,-0.287741184235,-0.157803878188,9.77104949951,-0.0144553622296,0.0317977812144,0.60672695914,1489,1488,1108,1523,16.3500003815,527,0.732421875,11.9750979357
3.00855588913,0.0243892110884,0.000838626292534,-0.0130531862378,-0.287741184235,-0.157803878188,9.77104949951,-0.0144553622296,0.0317977812144,0.60672695914,1489,1488,1108,1523,16.3500003815,527,0.732421875,11.9750979357
3.00869679451,0.0243892110884,0.000838626292534,-0.0130531862378,-0.287741184235,-0.157803878188,9.77104949951,-0.0144553622296,0.0317977812144,0.60672695914,1489,1488,1108,1523,16.3500003815,523,0.537109375,8.78173848616
3.00883984566,0.0243892110884,0.000838626292534,-0.0130531862378,-0.287741184235,-0.157803878188,9.77104949951,-0.0144553622296,0.0317977812144,0.60672695914,1489,1488,1108,1523,16.3500003815,527,0.732421875,11.9750979357
3.00897979736,0.0243892110884,0.000838626292534,-0.0130531862378,-0.287741184235,-0.157803878188,9.77104949951,-0.0144553622296,0.0317977812144,0.60672695914,1489,1488,1108,1523,16.3500003815,530,0.87890625,14.3701175228
3.00911998749,0.0243892110884,0.000838626292534,-0.0130531862378,-0.287741184235,-0.157803878188,9.77104949951,-0.0144553622296,0.0317977812144,0.60672695914,1489,1488,1108,1523,16.3500003815,528,0.78125,12.773437798
3.00925993919,0.0243892110884,0.000838626292534,-0.0130531862378,-0.287741184235,-0.157803878188,9.77104949951,-0.0144553622296,0.0317977812144,0.60672695914,1489,1488,1108,1523,16.3500003815,525,0.634765625,10.3784182109
3.00941991806,0.0243892110884,0.000838626292534,-0.0130531862378,-0.287741184235,-0.157803878188,9.77104949951,-0.0144553622296,0.0317977812144,0.60672695914,1489,1488,1108,1523,16.3500003815,525,0.634765625,10.3784182109
3.00956392288,0.0243892110884,0.000838626292534,-0.0130531862378,-0.287741184235,-0.157803878188,9.77104949951,-0.0144553622296,0.0317977812144,0.60672695914,1489,1488,1108,1523,16.3500003815,524,0.5859375,9.58007834854
3.00981092453,0.0243892110884,0.000838626292534,-0.0130531862378,-0.287741184235,-0.157803878188,9.77104949951,-0.0144553622296,0.0317977812144,0.60672695914,1489,1488,1108,1523,16.3500003815,525,0.634765625,10.3784182109
3.01000380516,0.0243892110884,0.000838626292534,-0.0130531862378,-0.287741184235,-0.157803878188,9.77104949951,-0.0144553622296,0.0317977812144,0.60672695914,1489,1488,1108,1523,16.3500003815,524,0.5859375,9.58007834854
3.01014494896,0.0243892110884,0.000838626292534,-0.0130531862378,-0.287741184235,-0.157803878188,9.77104949951,-0.0144553622296,0.0317977812144,0.60672695914,1489,1488,1108,1523,16.3500003815,525,0.634765625,10.3784182109
3.01083302498,0.0243892110884,0.000838626292534,-0.0130531862378,-0.302548527718,-0.158680558205,9.78377342224,-0.0144553622296,0.0317977812144,0.60672695914,1489,1488,1109,1522,16.3500003815,527,0.732421875,11.9750979357
3.01104187965,0.0243892110884,0.000838626292534,-0.0130531862378,-0.302548527718,-0.158680558205,9.78377342224,-0.0144553622296,0.0317977812144,0.60672695914,1489,1488,1109,1522,16.3500003815,525,0.634765625,10.3784182109
3.0111849308,0.0243892110884,0.000838626292534,-0.0130531862378,-0.302548527718,-0.158680558205,9.78377342224,-0.0144553622296,0.0317977812144,0.60672695914,1489,1488,1109,1522,16.3500003815,526,0.68359375,11.1767580733
3.01133680344,0.0243892110884,0.000838626292534,-0.0130531862378,-0.302548527718,-0.158680558205,9.78377342224,-0.0144553622296,0.0317977812144,0.60672695914,1489,1488,1109,1522,16.3500003815,524,0.5859375,9.58007834854
3.01147580147,0.0243892110884,0.000838626292534,-0.0130531862378,-0.302548527718,-0.158680558205,9.78377342224,-0.0144553622296,0.0317977812144,0.60672695914,1489,1488,1109,1522,16.3500003815,521,0.439453125,7.1850587614
3.01161384583,0.0243892110884,0.000838626292534,-0.0130531862378,-0.302548527718,-0.158680558205,9.78377342224,-0.0144553622296,0.0317977812144,0.60672695914,1489,1488,1109,1522,16.3500003815,525,0.634765625,10.3784182109
3.01175284386,0.0243892110884,0.000838626292534,-0.0130531862378,-0.302548527718,-0.158680558205,9.78377342224,-0.0144553622296,0.0317977812144,0.60672695914,1489,1488,1109,1522,16.3500003815,521,0.439453125,7.1850587614
3.01189088821,0.0243892110884,0.000838626292534,-0.0130531862378,-0.302548527718,-0.158680558205,9.78377342224,-0.0144553622296,0.0317977812144,0.60672695914,1489,1488,1109,1522,16.3500003815,525,0.634765625,10.3784182109
3.01203083992,0.0243892110884,0.000838626292534,-0.0130531862378,-0.302548527718,-0.158680558205,9.78377342224,-0.0144553622296,0.0317977812144,0.60672695914,1489,1488,1109,1522,16.3500003815,527,0.732421875,11.9750979357
3.01257801056,0.0243892110884,0.000838626292534,-0.0130531862378,-0.283423185349,-0.151582688093,9.78585624695,-0.0144553622296,0.0317977812144,0.60672695914,1489,1488,1109,1522,16.3500003815,525,0.634765625,10.3784182109
3.01277685165,0.0243892110884,0.000838626292534,-0.0130531862378,-0.283423185349,-0.151582688093,9.78585624695,-0.0144553622296,0.0317977812144,0.60672695914,1489,1488,1109,1522,16.3500003815,527,0.732421875,11.9750979357
3.01291489601,0.0243892110884,0.000838626292534,-0.0130531862378,-0.283423185349,-0.151582688093,9.78585624695,-0.0144553622296,0.0317977812144,0.60672695914,1489,1488,1109,1522,16.3500003815,524,0.5859375,9.58007834854
3.01305389404,0.0243892110884,0.000838626292534,-0.0130531862378,-0.283423185349,-0.151582688093,9.78585624695,-0.0144553622296,0.0317977812144,0.60672695914,1489,1488,1109,1522,16.3500003815,523,0.537109375,8.78173848616
3.08836102486,0.0255784541368,0.000491184822749,-0.0141579220071,-0.294435501099,-0.168394446373,9.76074695587,-0.0144936418549,0.031778140096,0.606668150353,1488,1488,1108,1520,16.3500003815,525,0.634765625,10.3784182109
3.19062280655,0.0262771733105,9.63897618931e-05,-0.0140232602134,-0.286909252405,-0.158553823829,9.79240703583,-0.0144480804456,0.0317746801714,0.60662027078,1488,1488,1108,1521,16.3530006409,526,0.68359375,11.1788090319
3.28903889656,0.0274324566126,-0.000340163736837,-0.0139021612704,-0.292521893978,-0.160661071539,9.81328201294,-0.0143945233603,0.0318090395833,0.60658615711,1489,1488,1109,1522,16.3530006409,525,0.634765625,10.3803226724
3.39135885239,0.0285865813494,-0.00086336460663,-0.0136350747198,-0.284873485565,-0.139141499996,9.76912307739,-0.0143317507091,0.0318035566257,0.606582509891,1488,1488,1106,1514,16.3589992523,524,0.5859375,9.58535112439
3.48965883255,0.0297971628606,-0.000836500315927,-0.0143290916458,-0.290610671043,-0.149666130543,9.77913188934,-0.0143429050926,0.0318245708043,0.606534979365,1489,1490,1096,1166,16.3589992523,525,0.634765625,10.3841303848
3.59212779999,0.0306558981538,-0.000550616125111,-0.0153074357659,-0.294934779406,-0.161694467068,9.75119113922,-0.0142686001235,0.0317696338294,0.606471358372,1489,1490,1093,1099,16.3600006104,525,0.634765625,10.3847660125
3.69037079811,0.0317702926695,0.000402138131903,-0.0157292466611,-0.300160199404,-0.166831567883,9.75990581512,-0.0142814355774,0.0317608322505,0.606569022199,1489,1490,1095,1099,16.3600006104,524,0.5859375,9.58593785766
3.79269695282,0.0324305854738,0.00101227639243,-0.0157823618501,-0.28869587183,-0.145813256502,9.73767757416,-0.0142913093189,0.0317956094298,0.606590097279,1489,1488,1094,1099,16.3600006104,525,0.634765625,10.3847660125
3.89101982117,0.0338403880596,0.00245907041244,-0.0150514887646,-0.285289853811,-0.144292980433,9.80519676208,-0.0142804457142,0.0317311552184,0.606476997201,1489,1488,1092,1099,16.3500003815,526,0.68359375,11.1767580733
3.99328780174,0.0342671312392,0.00292643927969,-0.0146989421919,-0.282943129539,-0.140089899302,9.74924755096,-0.0142947520094,0.0317057226072,0.606424378003,1489,1490,1090,1099,16.3500003815,528,0.78125,12.773437798
4.09161996841,0.0341988764703,0.00439982116222,-0.0157687980682,-0.293484985828,-0.150163963437,9.73496818542,-0.0143394067511,0.0317212297108,0.606371923249,1489,1489,1090,1099,16.341999054,528,0.78125,12.7671867609
4.19004297256,0.0338894203305,0.00521694170311,-0.0163737647235,-0.31211990118,-0.161126971245,9.81854057312,-0.0143229999936,0.0317275951197,0.606367339916,1489,1490,1089,1099,16.341999054,524,0.5859375,9.5753900707
4.29244184494,0.033988405019,0.00729745114222,-0.0150749543682,-0.297786831856,-0.120942845941,9.80145072937,-0.014431234037,0.0317404107464,0.606392872348,1489,1488,1089,1099,16.341999054,527,0.732421875,11.9692375884
4.39089083672,0.0336234718561,0.00775242783129,-0.0153486542404,-0.282009333372,-0.118557170033,9.75580787659,-0.0144596588854,0.0317272249983,0.606426911994,1489,1488,1089,1099,16.3390007019,524,0.5859375,9.57363322377
4.49301695824,0.033958517015,0.00827762205154,-0.0149527611211,-0.297321498394,-0.135867461562,9.73370265961,-0.0144747358489,0.0317749219809,0.606464228732,1489,1488,1089,1099,16.3390007019,522,0.48828125,7.97802768647
4.59141683578,0.0335956253111,0.00871074479073,-0.0162120312452,-0.294427722692,-0.151559367776,9.77053642273,-0.0144295191636,0.031703297955,0.606444053653,1489,1488,1089,1099,16.343000412,527,0.732421875,11.9699710049
4.69370484352,0.0333594083786,0.0102595193312,-0.017489278689,-0.298703283072,-0.150586426258,9.80964851379,-0.0144228855148,0.0316407117068,0.606456091789,1489,1488,1089,1099,16.343000412,526,0.68359375,11.1719729379
4.79201889038,0.0327225960791,0.0107946163043,-0.018511781469,-0.292485833168,-0.129852190614,9.76950931549,-0.0144518883352,0.0315908481772,0.606405342919,1489,1489,1089,1099,16.343000412,534,1.07421875,17.5559574738
4.89429187775,0.0334167256951,0.0110201053321,-0.0196454413235,-0.346605867147,-0.160779044032,9.80443000793,-0.0146050831817,0.0316151871799,0.606534068295,1489,1488,1089,1099,16.3449993134,535,1.123046875,18.3562004008
4.99272990227,0.0322726964951,0.0132456710562,-0.0214872229844,-0.300174981356,-0.1582826823,9.74726390839,-0.0145992492834,0.0315970138418,0.606403963699,1489,1488,1089,1099,16.3449993134,533,1.025390625,16.7600090616
5.09511184692,0.0317125059664,0.0137978661805,-0.0218336973339,-0.238478451967,-0.0549096502364,9.70590782166,-0.0146708768555,0.0316333069152,0.606339669641,1489,1489,1089,1099,16.3379993439,534,1.07421875,17.5505852327
5.1934299469,0.032560300082,0.0150298802182,-0.0222725961357,-0.355137526989,-0.208596035838,9.83605575562,-0.0146684315337,0.031592055089,0.606359064149,1489,1488,1089,1099,16.3379993439,541,1.416015625,23.1348623522
5.29195785522,0.0320478975773,0.0150283481926,-0.0224118791521,-0.290896862745,-0.144163131714,9.75313663483,-0.0146762520893,0.0316131898119,0.606296221128,1489,1489,1090,1099,16.3379993439,533,1.025390625,16.7528313585
5.39418792725,0.0325808376074,0.0177304409444,-0.0257407333702,-0.287737339735,-0.167331725359,9.68974971771,-0.0148388802096,0.031597605397,0.60622804575,1489,1489,1090,1099,16.3379993439,538,1.26953125,20.7416007296
5.49265885353,0.0319871120155,0.0196756161749,-0.0272859614342,-0.270533114672,-0.154909715056,9.82646846771,-0.0148310541784,0.031681048498,0.606128870773,1489,1488,1090,1099,16.3379993439,537,1.220703125,19.9438468553
5.59488201141,0.0314739756286,0.0206009186804,-0.0293342713267,-0.275761574507,-0.167766645551,9.41058731079,-0.0149102042319,0.0317017342966,0.605974604445,1489,1489,1091,1099,16.3269996643,543,1.513671875,24.713720195
5.69342494011,0.0308685544878,0.0221307389438,-0.0316706933081,-0.325514048338,-0.289460211992,9.64220237732,-0.0149634614949,0.0317399357572,0.606025180916,1489,1489,1091,1099,16.3269996643,546,1.66015625,27.1053705364
5.79568386078,0.0298984982073,0.0233591813594,-0.0314218178391,-0.462299466133,-0.34903550148,10.0258378983,-0.0150016528892,0.0317205824631,0.605884198365,1489,1489,1092,1099,16.3269996643,545,1.611328125,26.308153756
5.89389801025,0.029395584017,0.0260319709778,-0.034126996994,-0.396505177021,0.110486716032,9.80694484711,-0.0149721205657,0.031657464307,0.605682933288,1489,1489,1093,1099,16.3309993744,543,1.513671875,24.7197744437
5.99614095688,0.0287495162338,0.0268226005137,-0.0354386605322,-0.138052210212,-0.030010022223,10.1002807617,-0.0150746124417,0.0316615642962,0.605888507688,1489,1489,1093,1099,16.3309993744,558,2.24609375,36.6809556261
6.09476780891,0.0254419595003,0.0278319865465,-0.0378923155367,-0.509209096432,0.0485839396715,9.24862384796,-0.0149620258711,0.0316428918108,0.605643161252,1489,1489,1096,1099,16.3180007935,581,3.369140625,54.9776393922
6.19683885574,0.0258320923895,0.0296383742243,-0.0406307391822,-0.207895234227,0.192609593272,8.65180587769,-0.0148831437273,0.0314926711208,0.605634221603,1489,1489,1096,1099,16.3180007935,525,0.634765625,10.3581059724
6.29532980919,0.0241409894079,0.0321327410638,-0.0445957779884,0.0712914764881,-0.139509633183,10.0710229874,-0.0149953426049,0.0315244218923,0.605330400368,1489,1489,1097,1099,16.3180007935,536,1.171875,19.1226571799
6.39754486084,0.0253879912198,0.0329023636878,-0.0466404445469,-0.266524791718,0.116104573011,9.92036151886,-0.0152153570401,0.0316091249749,0.605651007261,1489,1489,1102,1099,16.3069992065,539,1.318359375,21.498485282
6.49614095688,0.025777015835,0.0361453145742,-0.0496435165405,-0.299403339624,-0.462469488382,9.4632806778,-0.0153279207703,0.0316042655507,0.605662369173,1489,1489,1106,1163,16.3069992065,550,1.85546875,30.2571274339
6.59469389915,0.0256923660636,0.0370362363756,-0.0539939627051,0.071141898632,-0.0202618055046,9.42774486542,-0.0152185625776,0.0314584409439,0.605551834039,1489,1488,1114,1511,16.3069992065,539,1.318359375,21.498485282
6.69713187218,0.0250071398914,0.0390648730099,-0.0542416237295,-0.36376696825,-0.237179279327,9.2956495285,-0.01525918811,0.0315680074861,0.605471873846,1489,1489,1115,1521,16.3069992065,540,1.3671875,22.2947254776
6.79510879517,0.0260678119957,0.0404128618538,-0.0606443621218,-0.199785426259,0.0165008381009,9.51464080811,-0.0152397527108,0.0315080794703,0.605465727186,1488,1489,1115,1518,16.3069992065,541,1.416015625,23.0909656733
6.89795398712,0.0267433580011,0.0433715768158,-0.0628879889846,-0.343068808317,0.144328191876,9.88191604614,-0.0152916859412,0.0316019996345,0.605394454086,1489,1488,1158,1520,16.3040008545,540,1.3671875,22.2906261683
6.99582791328,0.0263587683439,0.0444228723645,-0.0631189346313,-0.0489020869136,0.277353167534,9.83071327209,-0.0152240449841,0.03150611032,0.605358372508,1489,1489,1223,1517,16.3040008545,539,1.318359375,21.4945323765
7.09848690033,0.0260901916772,0.0440272726119,-0.0650301277637,-0.269615471363,-0.56383651495,9.49358463287,-0.0152514762144,0.0315296117471,0.605396680331,1489,1488,1355,1517,16.3040008545,536,1.171875,19.1062510014
7.19626402855,0.026743657887,0.0455731935799,-0.0674517229199,-0.523771464825,0.222107604146,10.2271108627,-0.0152357787029,0.0315317727617,0.605353556199,1489,1486,1433,1517,16.2989997864,544,1.5625,25.4671871662
7.29868388176,0.0273182857782,0.0429305024445,-0.0640628859401,-0.663631260395,0.204947814345,10.697227478,-0.0151456069156,0.0314895458691,0.605260181222,1489,1488,1568,1517,16.2989997864,621,5.322265625,86.747606285
7.3970079422,0.0269797947258,0.0430616103113,-0.0632576420903,-0.840520679951,0.262213349342,10.0297136307,-0.0136315946637,0.029149570708,0.604864146419,1489,1489,1675,1519,16.2919998169,600,4.296875,70.0046867132
7.49953389168,0.026482924819,0.0401857867837,-0.0547417551279,-0.584523618221,-0.383373707533,10.3551340103,-0.0124857180301,0.02713601577,0.605049829906,1489,1490,1778,1519,16.2919998169,701,9.228515625,150.350974873
7.59783482552,0.0251727905124,0.0346134006977,-0.0363604053855,-1.29541611671,-0.0850427746773,12.987701416,-0.0119427146008,0.0254969506711,0.604877779142,1489,1490,1778,1519,16.2919998169,837,15.869140625,258.540036157
7.69618487358,0.00346247386187,0.0154836550355,0.337615609169,0.0912260860205,0.184377327561,12.1755142212,-0.00419482586061,-0.0272188985521,0.608913862877,1489,1488,1778,1517,16.202999115,971,22.412109375,363.143388368
7.7983789444,-0.0255499519408,-0.00926262699068,0.757289707661,-0.248024761677,-1.75737059116,16.6171340942,-0.00317582697859,-0.061017104305,0.619144690673,1489,1489,1778,1519,16.202999115,971,22.412109375,363.143388368
7.8968539238,-0.0407935157418,-0.0412076078355,0.995862007141,0.0669213533401,-0.977281391621,16.1934909821,-0.00551704408266,-0.0615624056721,0.621769323243,1489,1489,1778,1519,16.202999115,971,22.412109375,363.143388368
7.99927997589,-0.103970512748,-0.125287041068,1.83429884911,0.544056117535,-2.14361524582,21.6464824677,0.00236035874981,-0.0541538924192,0.639250648273,1488,1489,1777,1518,15.9960002899,967,22.216796875,355.379889253
8.09766697884,-0.161893650889,-0.224861815572,2.71159243584,1.40699362755,-1.01225554943,17.6256561279,0.00217895011962,-0.0590016632112,0.653975903943,1489,1489,1777,1518,15.9960002899,813,14.697265625,235.097465198
8.20006990433,-0.175168007612,-0.254231274128,3.03015971184,2.57059597969,2.21046257019,7.12373685837,-0.00426177670588,-0.0291542702631,0.665077703622,1489,1489,1777,1520,15.763999939,809,14.501953125,228.608788178
8.29831886292,-0.167600721121,-0.25501152873,3.09974765778,1.13446784019,0.645710170269,7.79846143723,-0.0162785186395,0.0144740595682,0.669857771497,1489,1489,1777,1520,15.763999939,832,15.625,246.312499047
8.40035796165,-0.125183537602,-0.197608470917,3.09728884697,0.102636680007,-1.24529290199,8.93556118011,-0.0236196866677,0.0490297938766,0.674212254496,1489,1489,1778,1518,15.6929998398,841,16.064453125,252.099460317
8.49903082848,-0.0909185931087,-0.162337109447,3.10756063461,1.16827893257,0.0915900319815,9.22042560577,-0.0238872886069,0.0516261972694,0.674224967199,1489,1489,1778,1518,15.6929998398,833,15.673828125,245.969382255
8.60108399391,-0.0368753857911,-0.0945164635777,3.10400795937,-0.030988432467,0.0511765852571,9.14706802368,-0.0218675141769,0.0484298964376,0.672312207126,1489,1489,1777,1518,15.6420001984,860,16.9921875,265.791800246
8.69981384277,-0.0054636625573,-0.0541577413678,3.10082221031,-0.450079500675,-1.23969888687,9.67439937592,-0.0216867145177,0.039659926541,0.668700628772,1489,1487,1777,1518,15.6420001984,837,15.869140625,248.225100805
8.79796481133,0.0254917219281,-0.0189972221851,3.11223435402,0.606050252914,-1.01206469536,9.1905670166,-0.0191498239699,0.0327337354738,0.66536546257,1489,1487,1777,1518,15.6420001984,856,16.796875,262.736722083
8.90045285225,0.0487485155463,-0.000719216652215,3.10980582237,0.392498522997,-0.725058019161,8.51595020294,-0.0185035565574,0.0264829101808,0.663394348596,1489,1487,1777,1518,15.5939998627,843,16.162109375,252.031931375
8.99892401695,0.0639661103487,0.0207576043904,3.11843562126,0.201527073979,-0.207927852869,10.1421203613,-0.0199265651507,0.0188783875377,0.659996366896,1489,1487,1777,1518,15.5939998627,873,17.626953125,274.874704611
9.10091590881,0.0819042176008,0.0317172557116,3.11613559723,-0.285669744015,0.23176600039,10.7079191208,-0.0199849384805,0.0126472871195,0.655867804214,1489,1489,1777,1518,15.5939998627,831,15.576171875,242.89482208
9.19952487946,0.0847494974732,0.0439759269357,3.12386918068,0.133900493383,-0.095943801105,9.47705745697,-0.0195897660459,0.0113518371426,0.654691565588,1489,1489,1777,1518,15.5939998627,792,13.671875,213.199216873
9.3017809391,0.0922973230481,0.065440684557,3.12257575989,0.120903395116,-0.217302262783,9.01594161987,-0.0200991594601,0.00664212927954,0.648273443043,1489,1488,1776,1521,15.5430002213,784,13.28125,206.430471689
9.40027785301,0.09221688658,0.0775602906942,3.11474108696,0.112052820623,0.69606924057,11.0285539627,-0.0207480355038,0.00435963473311,0.644075080678,1489,1489,1776,1518,15.515999794,858,16.89453125,262.135543395
9.50239896774,0.0869010984898,0.0867623910308,3.11715126038,-0.688157439232,-0.626115620136,10.8413763046,-0.0185882371862,0.00306665235095,0.63944390225,1488,1489,1775,1521,15.515999794,787,13.427734375,208.344723796
9.60111093521,0.0883203521371,0.0878043547273,3.11444497108,0.957337021828,-0.131351411343,7.61211538315,-0.0138820352819,0.00199747947609,0.632898581801,1489,1489,1776,1518,15.515999794,819,14.990234375,232.588473475
9.70316886902,0.090707026422,0.0828390643001,3.11955690384,-0.626620233059,0.696029543877,11.1196527481,-0.0120200375414,0.00236766447662,0.631019390036,1489,1489,1776,1518,15.4870004654,819,14.990234375,232.153766742
9.80141997337,0.0912667140365,0.0829423069954,3.12841916084,-0.374629199505,-0.64034819603,11.7562141418,-0.0123603901657,0.00246025384569,0.630599671207,1489,1488,1776,1518,15.4870004654,872,17.578125,272.232430056
9.90381002426,0.0955813527107,0.0809284597635,3.11515641212,-1.0025639534,-1.8161444664,11.3554935455,-0.0125601827484,0.00146377341513,0.630502145983,1489,1488,1775,1521,15.4870004654,840,16.015625,248.033991829
10.0020828247,0.0997671633959,0.0778222233057,3.11239242554,1.72754430771,0.769239187241,6.56244707108,-0.0131013278562,0.0012063007809,0.631173682135,1489,1489,1776,1521,15.4650001526,875,17.724609375,274.111086689
10.1009669304,0.102209053934,0.0768973082304,3.13027215004,1.00748813152,0.284380167723,8.35307598114,-0.0153019048346,0.00107113630372,0.632464996997,1489,1489,1776,1521,15.4650001526,807,14.404296875,222.76245337
10.2031710148,0.10154312849,0.0711428523064,3.138235569,-1.1011724472,-1.55005645752,10.4313430786,-0.0174035118387,0.00104939913271,0.632584031216,1489,1489,1776,1518,15.4399995804,806,14.35546875,221.648431476
10.3015449047,0.102678112686,0.0721447467804,3.12116503716,-0.993467628956,-0.429717421532,10.5211420059,-0.0190787055194,-0.000200878754594,0.633110340644,1489,1489,1769,1522,15.4399995804,635,6.005859375,92.7304662299
10.4037628174,0.101305447519,0.0643579438329,2.85610938072,0.236692711711,0.159766465425,4.47082281113,-0.0234214045376,0.00492258564627,0.634381336836,1488,1490,1714,1522,15.4779996872,637,6.103515625,94.4702129346
10.5019178391,0.0970173627138,0.0687601640821,2.35584712029,-0.107036806643,0.0817235559225,5.23831701279,-0.0330107176397,0.0185809788012,0.633729078231,1489,1491,1640,1520,15.4779996872,617,5.126953125,79.354978865
10.6045668125,0.100424058735,0.0750582292676,1.86649525166,0.191808909178,0.820851564407,3.89284133911,-0.0395819976739,0.0214242920582,0.631782198055,1488,1490,1567,1521,15.4779996872,620,5.2734375,81.6222639755
10.7024178505,0.0968176200986,0.0788404345512,1.47003555298,-0.546453356743,0.643938243389,6.02007198334,-0.0423807665631,0.0179893660578,0.629403342438,1488,1490,1564,1518,15.5439996719,621,5.322265625,82.7292951288
10.8049910069,0.0897916257381,0.0828463211656,0.83631247282,-0.245805546641,1.33440601826,4.70250177383,-0.0439387551992,0.0123934309373,0.621999770735,1488,1490,1551,1521,15.5439996719,615,5.029296875,78.1753889749
10.9037008286,0.0847004055977,0.0884597301483,0.40537288785,0.104819223285,-0.531787514687,3.89920043945,-0.0418243885811,0.0110836038989,0.617110321064,1488,1490,1550,1521,15.6120004654,615,5.029296875,78.5173851531
11.0057709217,0.0793849602342,0.0861514732242,0.0152450744063,-1.19673597813,0.573824167252,8.75989151001,-0.0401311903628,0.00734557542023,0.613249209572,1489,1489,1516,1523,15.6120004654,767,12.451171875,194.387701107
11.1042368412,0.0644349604845,0.0876408815384,-0.0923164263368,-1.25775277615,0.912607908249,12.681854248,-0.031271995587,-0.00669307581499,0.610290520152,1488,1489,1509,1523,15.6120004654,759,12.060546875,188.289263425
11.2027709484,0.046416528523,0.0852008759975,-0.119534492493,0.728237807751,-1.02072012424,8.88890838623,-0.0250820436478,-0.0192988673777,0.609094940789,1489,1488,1510,1522,15.6000003815,770,12.59765625,196.523442306
11.3046278954,0.0261868834496,0.0812069699168,-0.125538811088,-1.12345778942,-0.595909714699,11.1097097397,-0.0218455031808,-0.0173560612846,0.608815002472,1488,1488,1510,1522,15.6000003815,805,14.306640625,223.183599208
11.4031019211,0.00896434765309,0.0686359852552,-0.146857738495,-0.833754718304,-0.681129276752,10.0711545944,-0.0197462475317,-0.0147329495945,0.608460002785,1489,1482,1510,1521,15.6000003815,752,11.71875,182.812504471
11.5056128502,-0.00156753044575,0.0502257943153,-0.164548292756,0.327310621738,0.780342280865,11.7389497757,-0.0174419539612,-0.0075624718277,0.607625824155,1489,1486,1510,1522,15.5819997787,764,12.3046875,191.731637902
11.6041269302,-0.000841099303216,0.0513279177248,-0.187193214893,-0.629329562187,0.37320843339,12.1015281677,-0.0165034532111,-0.00469327530264,0.607632809304,1489,1488,1510,1522,15.5819997787,774,12.79296875,199.340036231
11.7061238289,0.00165785336867,0.0437757894397,-0.201275035739,1.18178164959,1.17517757416,11.6953821182,-0.0155050079935,0.00103610719263,0.608021716998,1489,1495,1510,1522,15.5690002441,769,12.548828125,195.372708141
11.804792881,0.000600429950282,0.0375842154026,-0.198745235801,-0.195148736238,0.958295106888,8.15455722809,-0.0141956204637,0.00341972167476,0.608882261623,1490,1577,1510,1521,15.5690002441,762,12.20703125,190.051272511
11.9067549706,0.0205229409039,0.0451823733747,-0.229759991169,0.867386937141,1.20479607582,8.78916168213,-0.00290748921188,0.0239755204245,0.609851393537,1491,1671,1510,1521,15.5690002441,775,12.841796875,199.933938682
12.0050690174,0.0781874209642,0.066570751369,-0.219153940678,1.75784432888,1.05236053467,10.1731052399,-0.000891212059576,0.0888376763062,0.611116729051,1540,1898,1510,1522,15.5480003357,789,13.525390625,210.292777978
12.1075370312,0.19296169281,0.123391933739,-0.214699134231,0.65015822649,0.484581500292,9.84932422638,-0.00217416012204,0.190440116992,0.61261786608,1564,1901,1510,1522,15.5480003357,743,11.279296875,175.370511599
12.2060070038,0.463768333197,0.293088972569,-0.188870593905,-1.0779504776,-0.128585353494,13.7722034454,-0.014098319964,0.296273139436,0.614389873372,1576,1901,1510,1522,15.5310001373,856,16.796875,260.872267931
12.3040950298,0.655827641487,0.429418772459,-0.183934032917,0.0551204569638,-0.205220520496,11.7044582367,-0.0223460234642,0.334320798453,0.61547503807,1576,1901,1510,1522,15.5310001373,811,14.599609375,226.746535208
12.4068748951,1.00556099415,0.700431168079,-0.150675684214,-1.41631817818,-2.09204912186,10.9726190567,-0.0430647672096,0.383889206503,0.618447255274,1640,1901,1510,1522,15.5010004044,820,15.0390625,233.120513894
12.5051958561,1.25380301476,0.911404252052,-0.148119226098,1.65044271946,-1.81312024593,5.6944231987,-0.066924940804,0.408797846832,0.621608647607,1649,1901,1510,1521,15.5010004044,811,14.599609375,226.308550826
12.6074078083,1.50414180756,1.15474748611,-0.133738994598,-1.60262954235,-0.542056083679,13.0184335709,-0.0893442073401,0.426998550226,0.624252246832,1617,1901,1510,1521,15.5010004044,784,13.28125,205.872661621
12.7057359219,1.75731801987,1.43579316139,-0.112940989435,0.620027780533,0.935042798519,5.87845849991,-0.11053550908,0.441048775936,0.631083772793,1572,1901,1510,1522,15.4739999771,823,15.185546875,234.981151996
12.8077290058,2.11182379723,1.82133841515,-0.0867238566279,0.554458856583,1.45634365082,9.60845756531,-0.10628195173,0.466415652789,0.635358955829,1550,1901,1510,1522,15.4739999771,797,13.916015625,215.336425463
12.905990839,2.23821926117,1.96210384369,-0.105229116976,-1.76145505905,-1.09121632576,11.1293125153,-0.0941225389485,0.479988900794,0.636586490962,1560,1901,1510,1522,15.4739999771,807,14.404296875,222.892089514
13.0082910061,2.67392277718,2.38455867767,-0.0850400701165,1.41580414772,-0.223919555545,10.3504953384,-0.0578734296741,0.508849909198,0.638698094235,1587,1901,1510,1522,15.4469995499,834,15.72265625,242.867864017
13.1073679924,3.10383319855,2.74645590782,-0.103422917426,-1.92814230919,2.53914356232,10.5526304245,-0.0431418793429,0.535388994572,0.639605635994,1616,1901,1510,1522,15.4469995499,791,13.623046875,210.435198946
13.2090280056,3.38826465607,2.99066615105,-0.128568589687,0.224213898182,-0.547868847847,12.7203454971,-0.0588670734735,0.551304961817,0.641919053256,1618,1901,1510,1522,15.4180002213,777,12.939453125,199.500491145
13.307338953,3.67093610764,3.28620862961,-0.148554414511,0.849139869213,2.50931239128,7.62881374359,-0.0966942533998,0.561755003134,0.646399281027,1604,1898,1510,1522,15.4180002213,839,15.966796875,246.176077752
13.4063208103,4.03168201447,3.72028970718,-0.195880934596,-1.53094279766,-0.200403794646,16.473575592,-0.120821718637,0.567299688984,0.651535132041,1598,1898,1511,1521,15.392999649,809,14.501953125,223.228559363
13.5083990097,4.25153636932,4.0049328804,-0.196707502007,-2.57941627502,-0.737017571926,13.5999231339,-0.117026376129,0.579080491112,0.65586874729,1585,1864,1510,1522,15.392999649,737,10.986328125,169.112544972
13.6070928574,4.54274129868,4.33078384399,-0.300310254097,-1.49339592457,-1.64700829983,6.5572052002,-0.0506912899997,0.451167156963,0.666498462564,1574,1841,1511,1521,15.392999649,763,12.255859375,188.654439058
13.708673954,4.67466068268,4.45766592026,-0.293343544006,-3.69736027718,-1.08434712887,16.175201416,-0.0140380678136,0.291860074319,0.669981110744,1565,1830,1510,1521,15.392999649,719,10.107421875,155.583541374
13.8071370125,4.70377397537,4.47781181335,-0.288175910711,0.244098454714,-1.77716493607,10.1718521118,0.0103567600479,0.225578088652,0.670091278947,1564,1801,1510,1522,15.392999649,645,6.494140625,99.9643043612
13.9095788002,4.71774768829,4.38907146454,-0.270545363426,-2.31675887108,-1.88259899616,11.7918214798,0.0691375334335,0.0135185177441,0.664555872728,1568,1788,1511,1521,15.4119997025,734,10.83984375,167.06366865
14.0077419281,4.60300588608,4.25280618668,-0.316084086895,2.63993120193,-1.84557676315,8.39809036255,0.0381350669375,-0.129447248795,0.658651835806,1572,1793,1510,1522,15.4119997025,703,9.326171875,143.734958163
14.1101717949,4.46148014069,4.10567951202,-0.27724608779,-0.917452454567,-3.85844254494,13.7157068253,-0.00672651618152,-0.166448972119,0.655047712216,1567,1752,1510,1521,15.4119997025,703,9.326171875,143.734958163
14.2089819908,4.10813999176,3.78429746628,-0.289484113455,-0.415350615978,2.56551504135,12.4301013947,0.0496579198042,-0.361158442775,0.646489539328,1532,1547,1510,1521,15.4469995499,751,11.669921875,180.26527795
14.3112938404,3.78573799133,3.4551794529,-0.270378917456,0.655157029629,1.52104258537,15.9916725159,0.0724684264782,-0.440103264118,0.636412381473,1488,1527,1510,1522,15.4469995499,709,9.619140625,148.586860905
14.409662962,3.44299483299,3.08753919601,-0.281721621752,0.0899288579822,-0.147666990757,13.0091342926,0.103091159468,-0.572092879276,0.610747583559,1485,1488,1510,1522,15.4619998932,755,11.865234375,183.460252639
14.511852026,3.0075879097,2.62262916565,-0.337854236364,3.48996353149,-1.86386024952,8.34053039551,0.125274299002,-0.678055307398,0.584263853133,1486,1489,1510,1522,15.4619998932,900,18.9453125,292.932419852
14.6104359627,2.42087674141,2.01651453972,-0.427962869406,-1.22749018669,4.36286354065,10.7905626297,0.131612008403,-0.709627452185,0.573289597373,1493,1493,1510,1521,15.454000473,959,21.826171875,337.30167048
14.708313942,1.77973294258,1.38311815262,-0.56678789854,-0.394298493862,1.10306823254,11.2908372879,0.0686955448581,-0.67578594164,0.5814141564,1527,1489,1510,1521,15.454000473,971,22.412109375,346.356748882
14.810628891,1.24404466152,0.89594835043,-0.480992883444,-0.863779604435,-3.60509872437,17.1365356445,0.00440564949072,-0.459349849887,0.623603220607,1577,1489,1510,1521,15.375,779,13.037109375,200.445556641
14.9087729454,0.879792153835,0.6601344347,-0.352923542261,-0.194396480918,1.88503348827,15.1295289993,-0.072179907737,-0.263424873978,0.649478155952,1762,1484,1510,1522,15.375,700,9.1796875,141.137695312
15.0114789009,0.54102909565,0.607791006565,-0.276873230934,-1.20804858208,-0.120747111738,11.4154281616,-0.172166712372,-0.137233462771,0.653272524516,1801,1483,1510,1521,15.345000267,831,15.576171875,239.016361581
15.1097669601,0.290610402822,0.681101679802,-0.222009897232,-2.47929930687,-3.80936670303,12.9451246262,-0.241731242707,-0.0884657530699,0.645618392108,1878,1483,1510,1522,15.345000267,830,15.52734375,238.26709399
15.2122559547,0.055561773479,0.820460379124,-0.199066653848,0.858242869377,-0.0238326955587,12.3887615204,-0.285027118298,-0.0589604251698,0.634430760078,1898,1484,1510,1521,15.345000267,833,15.673828125,240.514896763
15.3103978634,-0.277388542891,1.12568366528,-0.178957358003,-0.460340708494,0.00180142163299,11.5696134567,-0.33833172424,-0.0248070813501,0.612371806885,1898,1484,1510,1522,15.3369998932,827,15.380859375,235.896238592
15.4127898216,-0.503867268562,1.37178480625,-0.177889540792,-0.0695965439081,-1.99496674538,6.86868810654,-0.36816516574,-0.0129541772143,0.596200828516,1898,1486,1510,1522,15.3369998932,819,14.990234375,229.905223008
15.5109038353,-0.858351707458,1.81876182556,-0.162017613649,-0.12012308836,0.0504604019225,11.7272081375,-0.40308088975,-0.00652075506351,0.57872825747,1898,1486,1510,1522,15.3249998093,794,13.76953125,211.01806378
15.6133289337,-1.01374864578,2.0320110321,-0.16556596756,-1.34788763523,-1.08504641056,11.7597351074,-0.411981348868,-0.00711306512016,0.574320096283,1898,1486,1510,1522,15.3249998093,807,14.404296875,220.745846862
15.7118058205,-1.2520750761,2.35067272186,-0.164511695504,-0.368580639362,-1.88087379932,7.42510461807,-0.433514875811,-0.0120791071899,0.570239086882,1898,1484,1510,1522,15.3249998093,816,14.84375,227.480465919
15.8100118637,-1.50753939152,2.67970657349,-0.167466059327,0.118032418191,-0.401845902205,6.99953985214,-0.451796297973,-0.0142502399599,0.567711147772,1881,1486,1510,1522,15.3159999847,818,14.94140625,228.842577896
15.9126110077,-1.82778120041,3.11615133286,-0.186382681131,-1.00169110298,-2.70996665955,14.8852996826,-0.478461429504,-0.0154969747357,0.566403710259,1784,1490,1510,1522,15.3159999847,751,11.669921875,178.736523259
16.0109319687,-2.01727509499,3.37761926651,-0.240666925907,0.459666699171,-0.94641315937,10.0951156616,-0.446436006577,-0.0126871459968,0.566543523601,1596,1493,1510,1522,15.3030004501,754,11.81640625,180.826470162
16.1129629612,-2.20806050301,3.62344789505,-0.295223772526,-0.681442499161,-0.259235858917,12.9446020126,-0.205529576732,-0.00469225169083,0.569578225611,1512,1493,1510,1522,15.3030004501,779,13.037109375,199.506890634
16.2114138603,-2.20951867104,3.6098959446,-0.256114959717,0.82422965765,-3.15351963043,4.42282056808,-0.0121602062233,0.000500987366231,0.574945499966,1486,1484,1510,1522,15.3030004501,760,12.109375,185.309771075
16.3136918545,-2.11499476433,3.47379660606,-0.249017626047,-1.90982270241,-1.01096475124,13.3593597412,0.205797059001,-0.00268849157449,0.582835554761,1485,1484,1510,1521,15.3159999847,799,14.013671875,214.633398223
16.4121489525,-1.86251223087,3.05334162712,-0.232903540134,-1.08289802074,-2.49659967422,15.9190311432,0.434454715239,-0.0288135163077,0.582984260376,1486,1484,1510,1522,15.3159999847,857,16.845703125,258.008788805
16.5143799782,-1.62915456295,2.61582422256,-0.228805959225,1.17338550091,1.05586612225,13.4559402466,0.527508403138,-0.0440816756623,0.585396264472,1485,1486,1510,1521,15.3030004501,871,17.529296875,268.250837968
16.6127018929,-1.2925144434,1.97240328789,-0.3123716712,-0.581865608692,-0.96200555563,9.18819236755,0.545714123594,-0.0648791120049,0.60479239075,1487,1480,1510,1522,15.3030004501,763,12.255859375,187.551421532
16.715159893,-1.16164243221,1.73878610134,-0.353109061718,-3.45045542717,-5.93615341187,13.4632158279,0.491044671516,-0.0624685607086,0.628118692904,1488,1423,1510,1522,15.3030004501,746,11.42578125,174.848735611
16.8136379719,-0.852986991405,1.18278455734,-0.281672090292,-3.72062706947,-2.27697110176,11.0418310165,0.374906029012,-0.0381067916847,0.675764021001,1488,1213,1511,1522,15.2760000229,806,14.35546875,219.294140954
16.91188097,-0.646107435226,0.739031612873,-0.248730167747,1.41118562222,1.12178421021,9.51959323883,0.244876987518,-0.0953571169807,0.68135305446,1488,1174,1510,1522,15.2760000229,833,15.673828125,239.433398796
17.0142178535,-0.605200231075,0.50940310955,-0.256048083305,-2.10865449905,-2.50007629395,15.0680036545,0.179591109811,-0.148590699897,0.675686373994,1488,1104,1511,1520,15.2760000229,844,16.2109375,247.638281621
17.1125400066,-0.667956709862,0.146662414074,-0.190602421761,0.751976549625,0.884786069393,7.973985672,0.10929414794,-0.229274500846,0.662591257309,1487,1102,1511,1520,15.2760000229,815,14.794921875,226.007226901
17.2150158882,-0.667956709862,0.146662414074,-0.190602421761,0.430563807487,1.09370911121,9.75154781342,0.10929414794,-0.229274500846,0.662591257309,1493,1148,1511,1520,15.2760000229,787,13.427734375,205.12207062
17.3132219315,-0.933641731739,-0.297499060631,-0.156028106809,-0.866961240768,0.500499010086,11.7332363129,0.0503569137718,-0.332335382099,0.635750539995,1493,1176,1511,1520,15.267999649,823,15.185546875,231.852924357
17.4155459404,-1.24176728725,-0.633769154549,-0.123705893755,0.959514200687,0.286489367485,10.1264429092,0.0283599996518,-0.376615309661,0.6164224684,1492,1209,1511,1520,15.267999649,815,14.794921875,225.888861994
17.5138309002,-1.41325378418,-0.810023009777,-0.161169245839,-0.927387058735,-0.981750428677,12.1833868027,0.0213404616592,-0.331812592289,0.605210110632,1486,1495,1511,1520,15.2600002289,858,16.89453125,257.810550742
17.6161999702,-1.52590537071,-0.954905092716,-0.0955308750272,1.44189918041,-0.570413768291,9.13908100128,0.00419257955442,-0.0711554322477,0.594518042417,1485,1655,1511,1522,15.2600002289,816,14.84375,226.515628398
17.7144989967,-1.50727522373,-0.950351476669,-0.0694155469537,-0.885194718838,-0.151642113924,7.97361373901,-0.00248593024966,0.0620553445455,0.588376893467,1485,1816,1511,1522,15.2600002289,843,16.162109375,246.633792762
17.8172240257,-1.27102971077,-0.804061770439,0.019837025553,0.605592727661,-0.617008149624,10.5106172562,-0.0183932617931,0.300351148562,0.574444669079,1488,1901,1511,1520,15.2469997406,832,15.625,238.234370947
17.9154779911,-0.755859613419,-0.458054304123,0.0418443493545,-0.0696324333549,-0.0255648158491,14.3318414688,-0.0357183572537,0.501296528328,0.556124003532,1486,1901,1511,1520,15.2469997406,864,17.1875,262.057808042
18.0177509785,-0.274697810411,-0.134109437466,0.0441610701382,-0.991496324539,-0.0691140964627,14.868929863,-0.0458758150289,0.586418844209,0.544214797991,1487,1901,1511,1520,15.236000061,871,17.529296875,267.076368257
18.1161668301,0.45251891017,0.348488122225,0.0376151166856,-1.30888092518,-0.677532911301,12.5822877884,-0.0582805665362,0.661300039569,0.530081599705,1487,1898,1511,1522,15.236000061,880,17.96875,273.771876096
18.2142670155,0.930239319801,0.663810133934,0.0087622506544,0.173108235002,-1.56225156784,8.85936069489,-0.059301454433,0.664197972344,0.528799743339,1487,1898,1511,1522,15.1990003586,888,18.359375,279.044147209
18.3169448376,1.16245949268,0.821183562279,-0.0121521214023,-1.19761145115,-0.757321953773,15.7570428848,-0.0590615877913,0.647532831369,0.528390763923,1486,1898,1511,1520,15.1990003586,855,16.748046875,254.553570459
18.4149868488,1.64914751053,1.1551296711,-0.0113122202456,-0.678355693817,0.853214144707,11.9392366409,-0.055828820105,0.60657291137,0.534090960175,1486,1898,1511,1520,15.1990003586,845,16.259765625,247.132183565
18.5173978806,2.50721740723,1.72781062126,0.000435803085566,-1.03888344765,-1.09049880505,12.0108242035,-0.0480295179175,0.562749339612,0.548896126403,1486,1898,1510,1520,15.1689996719,840,16.015625,242.94101037
18.6160268784,3.02391862869,2.08926391602,0.00225614197552,1.06342864037,0.462633550167,10.422211647,-0.0453588248707,0.562838096505,0.559829986756,1486,1898,1510,1522,15.1689996719,867,17.333984375,262.939203297
18.7179219723,3.22270965576,2.23333263397,-0.0184985846281,-0.863331675529,-2.81090807915,9.51011562347,-0.0431037803006,0.56790682954,0.563920173866,1486,1898,1510,1522,15.1689996719,846,16.30859375,247.385053243
18.8168869019,3.5792825222,2.48690247536,-0.0322422832251,-1.56228005886,-1.41580498219,14.1938257217,-0.0423476065844,0.573358276846,0.567932345269,1485,1897,1510,1522,15.1599998474,880,17.96875,272.406247258
18.9191219807,4.15291595459,2.88385748863,-0.0893410742283,-0.337608337402,-0.507644712925,6.41584205627,-0.0401337307222,0.593479178143,0.572472733267,1485,1894,1511,1520,15.1610002518,823,15.185546875,230.228079996
19.0170578957,4.61651611328,3.2103395462,-0.122775249183,-0.909362196922,-0.0623085349798,8.9479598999,-0.039813970664,0.594675816838,0.574794082788,1485,1888,1511,1520,15.1610002518,675,7.958984375,120.666164113
19.1193108559,4.95014476776,3.44088745117,-0.181335568428,-3.25108718872,-0.722013950348,7.95260953903,-0.0312446012948,0.44384601863,0.58257248163,1485,1817,1542,1518,15.1610002518,783,13.232421875,200.616751379
19.2180058956,5.08907365799,3.53945207596,-0.154398292303,-2.97892332077,-2.08126521111,12.9561023712,-0.0251657648372,0.286426352824,0.587648477267,1485,1810,1542,1518,15.1719999313,787,13.427734375,203.725585015
19.3161299229,5.10870170593,3.55263590813,-0.128867447376,-0.425923496485,0.192120432854,12.1075744629,-0.0207883038813,0.0988881880525,0.593395369047,1485,1745,1541,1520,15.1719999313,670,7.71484375,117.049608845
19.418419838,4.92828083038,3.42645025253,-0.0649174451828,-1.53228592873,-4.29381847382,6.95627260208,-0.0213283589476,-0.131390133642,0.601306643709,1486,1661,1541,1520,15.1719999313,757,11.962890625,181.500975741
19.5169420242,4.64976930618,3.2465672493,-0.0870719477534,-2.98907899857,-0.147119507194,8.82157707214,-0.0215232189649,-0.409692734417,0.607708261836,1487,1614,1541,1520,15.1719999313,775,12.841796875,194.835741305
19.619068861,4.05047798157,2.83583688736,-0.0751700922847,-1.59894108772,0.271105498075,14.4720172882,-0.00154019260257,-0.588815523563,0.595593331334,1578,1599,1541,1521,15.1719999313,752,11.71875,177.796874195
19.7184009552,3.50959539413,2.48421311378,-0.150445804,-1.08568704128,-2.01902937889,14.1677474976,-0.00550827072532,-0.670220098701,0.580751661866,1711,1591,1541,1520,15.2430000305,832,15.625,238.171875477
19.8197338581,3.03963446617,2.23941850662,-0.247396066785,0.645683288574,-0.453902065754,6.25516176224,-0.0849091645577,-0.649635759352,0.57178161218,1821,1591,1541,1520,15.2430000305,895,18.701171875,285.061963461
19.9181768894,2.12173700333,2.00480365753,-0.271910578012,-1.49517071247,-0.881897866726,10.2585830688,-0.281660788008,-0.493445898055,0.551554044049,1898,1598,1541,1520,15.2430000305,827,15.380859375,234.450439922
20.0203588009,1.82314646244,2.02328848839,-0.234750345349,-0.655877292156,-1.81614196301,11.9727544785,-0.361556195732,-0.4149599062,0.542706881916,1898,1597,1541,1520,15.2270002365,871,17.529296875,266.918607661
20.1191267967,1.19584465027,2.17731642723,-0.188645273447,2.70765542984,-0.264938682318,5.44626903534,-0.438202958798,-0.230046520876,0.534104162331,1898,1598,1541,1520,15.2270002365,862,17.08984375,260.227054823
20.2211380005,0.797265172005,2.39446020126,-0.134314730763,-4.11677789688,-2.47602891922,16.9606609344,-0.46887923643,-0.147235006053,0.540440146065,1898,1603,1541,1520,15.1949996948,857,16.845703125,255.970453843
20.3196289539,0.338276922703,2.77331376076,-0.13251709938,-2.12423324585,-4.10960912704,14.8064594269,-0.505799801936,-0.0643362836513,0.566478146835,1898,1601,1541,1520,15.1949996948,767,12.451171875,189.195552841
20.4178228378,0.0306839235127,3.05790615082,-0.114231303334,-0.197594344616,0.129680737853,12.6351604462,-0.523220545849,-0.0308801762998,0.584123494217,1898,1601,1541,1520,15.1949996948,864,17.1875,261.164057254
20.5206859112,-0.388666212559,3.4989323616,-0.12204542011,-2.14169335365,-0.465639561415,14.3876018524,-0.539994735194,0.00536877656847,0.606750020625,1898,1602,1541,1520,15.1949996948,863,17.138671875,260.42211391
20.6185979843,-0.768413007259,3.93333292007,-0.148473739624,-1.06092607975,-2.11368751526,8.75286769867,-0.550052174114,0.031581485369,0.617586735425,1898,1601,1541,1520,15.1949996948,819,14.990234375,227.776606753
20.7209179401,-1.0239328146,4.26393508911,-0.157171070576,-1.49372696877,-0.00595887843519,8.67224502563,-0.55846803451,0.0479882724172,0.621982175081,1898,1601,1541,1520,15.1730003357,856,16.796875,254.858990014
20.8193318844,-1.31053006649,4.6162314415,-0.182500317693,-0.736288070679,-0.624805808067,13.3486299515,-0.561985207081,0.0536378558984,0.622836429209,1887,1607,1541,1520,15.1730003357,839,15.966796875,242.264214344
20.9217469692,-1.68796730042,5.12761592865,-0.201622933149,1.25253808498,-2.18516397476,8.00300598145,-0.565945164729,0.0622257278598,0.618519216005,1871,1609,1540,1520,15.1590003967,819,14.990234375,227.236968837
21.0203309059,-1.88825917244,5.42659187317,-0.220929160714,-0.151218727231,-0.0267121586949,11.1338825226,-0.554374672763,0.0787955647602,0.609041818745,1851,1610,1541,1520,15.1590003967,783,13.232421875,200.590288452
21.1225578785,-2.11975216866,5.79016399384,-0.281753659248,-0.562992632389,-1.62737953663,12.0676221848,-0.433452646161,0.0883154086379,0.605743470372,1827,1615,1540,1520,15.1590003967,776,12.890625,195.408989489
21.2207479477,-2.1854133606,5.93513679504,-0.280203223228,-1.15540778637,-0.470271855593,9.96259593964,-0.303444207403,0.0930022678351,0.607351678673,1807,1618,1541,1520,15.1649999619,748,11.5234375,174.752929248
21.3229649067,-2.18862199783,5.98374795914,-0.267607629299,-0.432291388512,-1.83211576939,7.97216415405,-0.105818443016,0.103161523233,0.61434872025,1748,1631,1541,1520,15.1649999619,723,10.302734375,156.240966404
21.4221827984,-2.09963560104,5.9072394371,-0.236142471433,-0.918331325054,-2.2498524189,11.4717102051,0.0586743062267,0.108897571148,0.624028222953,1560,1595,1542,1521,15.1859998703,727,10.498046875,159.423338482
21.5198919773,-1.79872906208,5.58946275711,-0.189395740628,-1.37632632256,-0.369383960962,12.5306739807,0.343536487711,0.0671284642543,0.631348056817,1487,1557,1543,1521,15.1859998703,971,22.412109375,340.350290062
21.6220228672,-1.50752329826,5.20576286316,-0.0633202344179,0.694761872292,1.54120850563,13.6668968201,0.47009075826,0.0289090566896,0.623625547687,1486,1557,1706,1520,15.1899995804,980,22.8515625,347.115224786
21.7207069397,-1.08476746082,4.35234928131,0.377093166113,-0.857109546661,-1.45282411575,17.8503799438,0.470386764168,-0.0951869239388,0.574273988649,1486,1564,1820,1521,15.1899995804,980,22.8515625,347.115224786
21.8227348328,-0.87775439024,3.67118430138,0.720503807068,-1.6848076582,-2.00796461105,12.5838546753,0.437594100801,-0.131033180081,0.572509519627,1486,1565,1902,1522,15.1899995804,709,9.619140625,146.114742058
21.9219908714,-0.780944466591,3.08105969429,0.834961354733,0.312803924084,-1.17177057266,8.13255310059,0.201287747877,-0.140970140458,0.613054334667,1486,1564,1902,1521,15.0719995499,976,22.65625,341.474989802
22.0236108303,-0.763517320156,2.78643774986,1.17762768269,-2.97618603706,-4.40713310242,17.308511734,0.083085249286,-0.0697871075299,0.654703620723,1486,1564,1902,1520,15.0719995499,775,12.841796875,193.55155672
22.1218018532,-0.73964214325,2.60797595978,1.59866654873,-0.252760350704,-3.64601206779,16.5096492767,0.0438197987531,-0.0304641067538,0.673014211999,1487,1564,1902,1521,14.9910001755,967,22.216796875,333.052005852
22.2239668369,-0.683551311493,2.43183040619,2.26647281647,-0.364057540894,3.17698931694,14.4433012009,0.0118710085661,0.00400206204123,0.680631014676,1487,1564,1902,1521,14.9910001755,971,22.412109375,335.979935574
22.3224718571,-0.636474847794,2.33873939514,2.61145353317,3.00349378586,4.75051879883,12.623913765,0.00400247825985,0.0117658072876,0.675702545288,1487,1564,1902,1521,14.9910001755,967,22.216796875,333.052005852
22.424751997,-0.599812805653,2.28356719017,2.98301720619,-0.32506108284,-1.27318882942,16.5508365631,0.0137973388417,0.0216112414523,0.664010489087,1486,1565,1901,1520,14.8249998093,967,22.216796875,329.364009435
22.5238499641,-0.515822708607,2.17183470726,3.43965864182,-3.00169634819,-1.69652760029,16.4323368073,-0.0146595556625,0.0231252600817,0.646917699252,1487,1565,1902,1521,14.8249998093,980,22.8515625,338.774409705
22.6256048679,-0.486347407103,2.13922214508,3.69929242134,0.0217695776373,-3.24225902557,13.5766868591,-0.0214988858361,0.0228849655933,0.637126000267,1486,1566,1902,1520,14.7419996262,967,22.216796875,327.520011227
22.7238399982,-0.444540709257,2.09938955307,4.0786151886,-1.30733656883,0.0281767714769,13.5980625153,-0.0268826741165,0.0265089945887,0.622698418715,1486,1565,1901,1520,14.7419996262,971,22.412109375,330.399308029
22.822149992,-0.41589152813,2.0680141449,4.28569936752,-1.29430615902,1.80768060684,10.9660100937,-0.0186109837652,0.0281090959084,0.616996834192,1487,1561,1901,1521,14.6680002213,983,22.998046875,337.335356652
22.924751997,-0.338546067476,1.99175393581,4.68659734726,-0.457509815693,1.96159076691,13.8466176987,-0.0248206228745,0.0245554533238,0.610798990928,1486,1559,1898,1524,14.6680002213,832,15.625,229.187503458
23.0228879452,-0.273295253515,1.88667428493,4.7423658371,0.216731786728,-0.117771521211,8.88588619232,0.155974002833,0.00704335812811,0.606154014714,1486,1556,1858,1526,14.6680002213,627,5.615234375,82.3642590552
23.1257009506,-0.173230916262,1.66213309765,4.27411413193,0.391114205122,-0.819210350513,3.79246473312,0.30979290193,-0.0195563982738,0.60056207902,1486,1549,1701,1524,14.6680002213,635,6.005859375,88.0939466416
23.2240908146,-0.101863354445,1.47172617912,3.80184650421,-1.11997866631,0.36780744791,3.84938454628,0.352661485469,-0.061966125779,0.588831053603,1486,1527,1555,1523,14.6680002213,633,5.908203125,86.661524745
23.3258910179,-0.067026861012,1.33452153206,3.48221087456,0.464644372463,0.0601183399558,2.70933246613,0.346770154138,-0.100224256201,0.578618797275,1486,1515,1516,1524,14.8009996414,639,6.201171875,91.7835426981
23.4247608185,-0.0336039625108,1.17510426044,3.04997420311,-1.9914213419,0.330015838146,4.59617948532,0.331853502462,-0.12161492748,0.573750580181,1486,1504,1502,1523,14.8009996414,624,5.46875,80.9429667889
23.5269749165,0.00514517584816,0.916129827499,2.38233876228,-0.615767657757,0.958486616611,4.58367156982,0.247820656764,-0.115272942197,0.582691810341,1486,1507,1504,1524,14.9359998703,633,5.908203125,88.2449211087
23.6251590252,0.00986284948885,0.799326598644,2.00753569603,-0.380603700876,-0.010815099813,3.09244799614,0.197329262644,-0.0937027044813,0.589522689002,1486,1514,1504,1524,14.9359998703,637,6.103515625,91.1621085834
23.7271280289,0.0248498879373,0.648061454296,1.37101733685,0.415227502584,-3.54410529137,5.51701164246,0.136650560963,-0.0617495828396,0.594287314773,1486,1500,1504,1523,14.9359998703,602,4.39453125,65.63671818
23.8255019188,0.0333648957312,0.559880256653,0.963595151901,-0.917635500431,0.689479410648,6.06319713593,0.132953430816,-0.0602231384502,0.593486640944,1486,1500,1504,1523,15.0590000153,605,4.541015625,68.3831543664
23.9243879318,0.0330205708742,0.444806039333,0.3774292171,0.0725247338414,-0.136517077684,3.02568101883,0.139308344321,-0.076476084488,0.588589316567,1486,1485,1504,1524,15.0590000153,619,5.224609375,78.6773926581
24.0264089108,0.0279634706676,0.349451482296,0.0054112393409,0.471889764071,-1.33090651035,5.58427238464,0.132675092043,-0.0789521269908,0.586815383019,1485,1485,1504,1523,15.0590000153,845,16.259765625,244.855810796
24.1245348454,0.029443256557,0.225751370192,-0.0394193530083,0.305357903242,0.393286794424,10.3258476257,0.0814465631607,-0.0608564028497,0.588179026133,1485,1484,1504,1524,15.1529998779,770,12.59765625,190.892283618
24.2269937992,0.0177605822682,0.0917396768928,-0.00270918151364,-0.68990778923,0.32471114397,6.15424394608,0.0458497283449,-0.0338608855763,0.591878475464,1485,1484,1504,1523,15.1529998779,753,11.767578125,178.314109891
24.3259038925,0.0155880078673,0.0356240384281,0.0198665428907,0.885651290417,-0.505253911018,9.8600435257,0.0362611535147,-0.0238145523807,0.59412513156,1485,1484,1504,1524,15.154999733,768,12.5,189.437496662
24.4275150299,0.0108403656632,-0.038306709379,0.0292627364397,1.3207244873,0.313328266144,8.6184091568,0.0257841629766,-0.0122268976756,0.59695196034,1485,1484,1504,1523,15.154999733,795,13.818359375,209.417232639
24.5268268585,0.0169135313481,-0.0915435627103,0.0461265817285,0.471733152866,0.558335363865,11.8398952484,0.0183119388171,-0.00592868570184,0.598325990423,1485,1485,1504,1523,15.154999733,812,14.6484375,221.997066401
24.6282689571,0.0270464904606,-0.124013997614,0.0866324827075,-1.49566495419,0.16094109416,11.1847038269,0.00642592853164,-0.000133165439233,0.599777816087,1485,1484,1504,1523,15.1639995575,775,12.841796875,194.73300213
24.7266709805,0.0292701981962,-0.148802831769,0.107462115586,0.069182947278,0.160218387842,10.2266798019,0.000256597896236,0.00297420467357,0.600691508155,1485,1485,1504,1524,15.1639995575,776,12.890625,195.473431796
24.8288948536,0.0298950560391,-0.166042268276,0.124641053379,-1.20237767696,-0.549506902695,12.4177722931,-0.00668410513295,0.00501237526275,0.601687211146,1485,1484,1504,1523,15.1730003357,789,13.525390625,205.220756494
24.9277808666,0.0350140705705,-0.169266313314,0.133442804217,-0.77515989542,1.0350741148,11.183177948,-0.0126279103325,0.00650249872284,0.602348983592,1485,1484,1504,1523,15.1730003357,798,13.96484375,211.888578907
25.0257718563,0.0321340933442,-0.169909209013,0.173135846853,0.424187779427,0.0398580431938,11.3736124039,-0.0163232111792,0.00779023622636,0.603084419181,1485,1484,1504,1523,15.1719999313,771,12.646484375,191.872460069
25.1281239986,0.0285295229405,-0.156629189849,0.186948373914,-0.603263795376,-1.91557681561,11.9450025558,-0.0253544285649,0.0110704104696,0.604361511709,1491,1290,1504,1523,15.1719999313,831,15.576171875,236.321678617
25.2263820171,0.00503781577572,-0.152573049068,0.23706638813,-0.81054276228,1.54879200459,12.6698026657,-0.0494953994103,0.00641617427316,0.604502536746,1492,1209,1504,1524,15.1689996719,784,13.28125,201.463276892
25.3288578987,-0.064624376595,-0.152697309852,0.257859528065,0.154986605048,-0.464171171188,9.88174819946,-0.0635650034023,-0.0614527916884,0.60714349343,1494,1104,1504,1524,15.1689996719,777,12.939453125,196.278560208
25.4271218777,-0.185298636556,-0.191266283393,0.269089907408,0.142247155309,0.422851234674,10.3553628922,-0.0570402711904,-0.156669126564,0.610501730187,1493,1100,1504,1524,15.1689996719,803,14.208984375,215.536079322
25.5294759274,-0.450554549694,-0.321557760239,0.28916940093,0.419526934624,-0.616133630276,9.11617469788,-0.047516377567,-0.264277830066,0.613624111399,1493,1102,1504,1524,15.1660003662,815,14.794921875,224.379790574
25.6278619766,-0.555114626884,-0.38337662816,0.285143941641,-1.10057604313,-2.16574025154,9.35223007202,-0.044362796734,-0.295474756588,0.614337321461,1492,1103,1504,1523,15.1660003662,837,15.869140625,240.67139253
25.7300748825,-1.04682934284,-0.680220544338,0.31347951293,0.715077459812,-0.00987619068473,10.7646493912,-0.0339617866577,-0.363715047034,0.615606429799,1491,1104,1504,1523,15.1660003662,838,15.91796875,241.411919892
25.8283998966,-1.19256281853,-0.779933810234,0.30463129282,1.00428569317,0.738659501076,11.4075727463,-0.0288628662865,-0.384174290389,0.615813675842,1491,1105,1504,1524,15.1470003128,843,16.162109375,244.807475759
25.9307858944,-1.55253565311,-1.02207887173,0.300590664148,-0.73233294487,0.216406077147,13.2982988358,-0.024337558805,-0.417419689032,0.615728520128,1490,1103,1504,1524,15.1470003128,853,16.650390625,252.203472005
26.0291228294,-1.93787252903,-1.28168129921,0.311303704977,-0.257695436478,-2.00511145592,11.600112915,-0.0218742109086,-0.438325728424,0.614942498594,1486,1103,1504,1523,15.1470003128,850,16.50390625,249.984673131
26.13139081,-2.18109035492,-1.46026051044,0.31298750639,0.771789908409,-0.479234963655,11.498298645,-0.0203306794557,-0.450321827643,0.613107509049,1486,1103,1504,1523,15.1470003128,848,16.40625,248.505473882
26.2302818298,-2.78602027893,-1.87634444237,0.301074594259,0.732752084732,-0.23502227664,10.6488294601,-0.0160111215847,-0.478201966162,0.604193165141,1486,1103,1504,1523,15.1470003128,836,15.8203125,239.630278386
26.3286628723,-3.11276006699,-2.10108852386,0.29859778285,-1.39763748646,-1.44232225418,13.4725723267,-0.0132219977473,-0.490251866015,0.598811443914,1486,1103,1504,1523,15.1190004349,817,14.892578125,225.160895149
26.4305508137,-3.39476728439,-2.2989859581,0.279130190611,-0.12284258008,-0.65961253643,10.2440366745,-0.0111265484192,-0.505287248956,0.594168509843,1486,1105,1504,1524,15.1190004349,845,16.259765625,245.831403556
26.5289919376,-3.87798547745,-2.63362002373,0.239464893937,1.98112237453,-0.356394350529,6.16452598572,-0.00296683735368,-0.537187960168,0.582658604637,1486,1103,1504,1523,15.1190004349,832,15.625,236.234381795
26.63129282,-4.20105600357,-2.85830330849,0.204529002309,1.68338894844,0.376109719276,9.49024963379,-0.000212792133263,-0.55409873183,0.576387383652,1486,1103,1504,1523,15.109000206,870,17.48046875,264.112405945
26.72961092,-4.66074419022,-3.18278312683,0.155925914645,1.08575630188,0.810326218605,8.11423301697,0.0041052270253,-0.568465288288,0.568848550266,1486,1103,1504,1523,15.109000206,815,14.794921875,223.536477657
26.83177495,-4.96865653992,-3.38859987259,0.110504418612,0.68333542347,-0.676235020161,9.36826229095,0.00641220533009,-0.540388203867,0.565351283867,1486,1105,1504,1524,15.1079998016,815,14.794921875,223.521676752
26.9302549362,-5.0861697197,-3.47104811668,0.105010710657,2.91157317162,-0.412372857332,8.68288612366,0.00374264365661,-0.497279717025,0.564129684374,1486,1107,1504,1523,15.1079998016,752,11.71875,177.046872675
27.0325508118,-5.48626089096,-3.76034045219,0.119828172028,1.67041766644,2.37487483025,9.85256767273,0.000775986816775,-0.387616340335,0.562846270853,1486,1112,1504,1523,15.1079998016,749,11.572265625,174.833786767
27.1309130192,-5.61858940125,-3.84373426437,0.107456386089,1.16797661781,-0.040152285248,11.8872318268,-0.000725209288777,-0.34233931215,0.56276678691,1486,1182,1504,1524,15.107000351,787,13.427734375,202.852787916
27.2334640026,-5.67977142334,-3.88561964035,0.0873206481338,1.93962931633,-0.831666707993,10.5888757706,-0.0109969350504,-0.111314924522,0.562901611524,1485,1293,1504,1524,15.107000351,733,10.791015625,163.019876835
27.331786871,-5.61231613159,-3.83826780319,0.140074640512,-0.533030152321,1.25375664234,10.491850853,-0.0171322782035,0.0578674075451,0.561344494104,1445,1387,1504,1524,15.1260004044,740,11.1328125,168.394926377
27.430123806,-5.26698207855,-3.60719442368,0.174443408847,1.23474955559,-0.570360481739,11.3008146286,-0.0318116254961,0.351248912304,0.5572502866,1290,1444,1504,1524,15.1260004044,782,13.18359375,199.415044394
27.5324018002,-4.85079479218,-3.36914920807,0.154096111655,-0.674066245556,-0.125786304474,11.5661830902,0.0134272510514,0.550897019666,0.552225756742,1169,1460,1504,1524,15.1490001678,780,13.0859375,198.238869383
27.631002903,-4.13734102249,-3.06440734863,0.0589278414845,1.21683645248,-2.19224262238,15.8739385605,0.129674685799,0.621389287363,0.551675408872,1120,1460,1504,1523,15.1490001678,864,17.1875,260.373440384
27.7334389687,-3.6097407341,-2.94035100937,0.00636439584196,3.01984238625,-0.404531002045,13.7102994919,0.243011360464,0.590624115022,0.546211444128,1097,1460,1504,1524,15.1490001678,922,20.01953125,303.275882266
27.831444025,-2.79847478867,-2.90627455711,-0.00444462662563,1.65520989895,0.0234992466867,9.76405143738,0.336976023549,0.514610720464,0.531865277147,1097,1458,1504,1524,15.1490001678,947,21.240234375,321.768314111
27.9336910248,-2.25725245476,-2.97312259674,0.0381654947996,1.23054647446,0.602084517479,8.90415096283,0.401257320175,0.441019802167,0.520520161322,1097,1459,1504,1524,15.1490001678,847,16.357421875,247.798586729
28.0319759846,-1.31058490276,-3.2493326664,0.0726308748126,0.725672781467,1.25864398479,12.2089729309,0.529108745202,0.370328157201,0.535510400787,1097,1458,1504,1523,15.0860004425,919,19.873046875,299.80479395
28.1344838142,-0.485647559166,-3.60950994492,0.0480976998806,0.48892480135,1.61851608753,11.1710414886,0.564446505028,0.327701935346,0.545287958735,1097,1459,1504,1523,15.0860004425,871,17.529296875,264.446980413
28.232891798,0.0556729696691,-3.88824486732,0.0439587421715,-0.702624797821,-0.541061937809,15.5033521652,0.550104542851,0.280086657726,0.547637236959,1097,1459,1504,1524,15.0629997253,883,18.115234375,272.869770414
28.3356158733,0.753803670406,-4.27464103699,0.05573862046,0.186205640435,0.54587250948,9.90892028809,0.52391687935,0.236215000417,0.553769120009,1097,1457,1504,1523,15.0629997253,907,19.287109375,290.521723217
28.4337348938,0.976830482483,-4.41064977646,0.0565637499094,1.48841786385,0.711210727692,12.7173595428,0.517672470947,0.223965142498,0.557801099312,1097,1458,1504,1523,15.0629997253,896,18.75,282.431244849
28.5318000317,1.68490314484,-4.83479499817,0.083106726408,-0.695846617222,-0.613507568836,11.6138305664,0.506570699165,0.202602891805,0.56636210486,1097,1458,1504,1523,15.0389995575,903,19.091796875,287.121524755
28.6350200176,2.09007167816,-5.08365726471,0.0929636508226,-0.460003614426,1.85604417324,10.9022331238,0.505535172661,0.197725395728,0.570902138021,1097,1458,1504,1523,15.0389995575,952,21.484375,323.103506118
28.733330965,2.28366351128,-5.19564437866,0.0892106667161,0.0689022988081,1.75184369087,12.815694809,0.504607677011,0.196540583136,0.572981028305,1097,1458,1504,1523,15.015999794,879,17.919921875,269.085543183
28.8347299099,2.95088267326,-5.612865448,0.099955521524,-0.198385968804,0.887963354588,10.987704277,0.464232030991,0.179988875174,0.57112678896,1097,1454,1504,1523,15.015999794,831,15.576171875,233.891793666
28.9330999851,3.22452712059,-5.78014612198,0.100465163589,0.91038107872,0.00477597722784,9.05726718903,0.403465706434,0.146779499212,0.55936870536,1097,1452,1504,1524,15.015999794,815,14.794921875,222.160543827
29.0356228352,3.5465760231,-5.99153137207,0.11878978461,0.793213903904,1.34712255001,7.07917785645,0.326513507366,0.106414123926,0.547824467035,1097,1452,1504,1523,15.0129995346,836,15.8203125,237.5103442
29.1339600086,3.69823861122,-6.10828542709,0.137883275747,-0.686386168003,4.34905958176,9.37822818756,0.29315174786,0.0910158139937,0.543796686234,1097,1450,1504,1524,15.0129995346,775,12.841796875,192.793890508
29.2360799313,3.76539611816,-6.15489912033,0.143322333694,-0.829648435116,-1.16705918312,10.4037494659,0.276100446982,0.08221611227,0.541313466275,1097,1449,1504,1524,15.0129995346,800,14.0625,211.120305955
29.3345198631,3.91534161568,-6.27619171143,0.178405582905,1.75011277199,1.80130898952,10.6179943085,0.23495175665,0.0620217434342,0.53563953607,1097,1449,1504,1523,15.0349998474,746,11.42578125,171.78661935
29.4372389317,4.01164913177,-6.35084915161,0.167519196868,0.434992939234,2.15883302689,3.01800584793,0.213391034981,0.0572318138972,0.532932040237,1097,1449,1504,1524,15.0349998474,800,14.0625,211.429685354
29.5351359844,4.05788469315,-6.3967461586,0.15553869307,0.570603191853,1.77738177776,7.59943771362,0.200165547176,0.0553560788014,0.531816037836,1097,1450,1504,1524,15.0699996948,735,10.888671875,164.092281833
29.6375739574,4.1147403717,-6.41943979263,0.136082366109,0.161951094866,-0.0988865196705,9.26915168762,0.187372634785,0.0509956796125,0.530425205101,1097,1451,1504,1523,15.0699996948,775,12.841796875,193.525874987
29.7370920181,4.13824653625,-6.43583965302,0.12358365953,-1.98180031776,2.07604432106,12.9500265121,0.188306989503,0.0483156202617,0.529225725539,1097,1449,1504,1523,15.0699996948,736,10.9375,164.828121662
29.8342878819,4.17410707474,-6.45516490936,0.109939076006,1.97217428684,2.59973573685,10.1739044189,0.181213631725,0.0495712291929,0.529860621206,1097,1448,1504,1524,15.1029996872,755,11.865234375,179.200631054
29.9368908405,4.19235944748,-6.47913789749,0.10158071667,-1.74481642246,2.37049388885,14.3665018082,0.177399079221,0.0454471128493,0.530884855981,1097,1456,1504,1523,15.1029996872,756,11.9140625,179.938082211
30.0349669456,4.22233533859,-6.50405597687,0.0960646048188,-3.47988367081,2.336114645,15.193608284,0.167172036705,0.0458664927102,0.533221112963,1097,1492,1504,1524,15.1219997406,757,11.962890625,180.902828928
30.1371200085,4.22819566727,-6.50740480423,0.0702572837472,-0.340633571148,0.467902094126,8.03355884552,0.163934353209,0.0458929182116,0.535489438619,1129,1493,1504,1524,15.1219997406,757,11.962890625,180.902828928
30.2357389927,4.22482919693,-6.48436164856,0.0406870283186,-1.06273496151,0.914965927601,8.46509456635,0.138387911509,0.0453797559539,0.537280495254,1160,1528,1504,1523,15.1219997406,815,14.794921875,223.728804756
30.3381359577,4.16792201996,-6.33479976654,0.0504394955933,1.17978024483,-0.413937091827,10.0991439819,-0.0822328828119,0.0473192229735,0.544671513648,1289,1642,1504,1524,15.1490001678,747,11.474609375,173.828859347
30.4362339973,4.05841779709,-5.95932483673,0.111193493009,-3.13314700127,-0.00538984593004,13.6917381287,-0.268549343026,0.142439426192,0.538995478528,1345,1675,1504,1524,15.1490001678,751,11.669921875,176.787648443
30.5385689735,3.97341942787,-5.39119291306,0.133840218186,1.19024014473,0.146517559886,9.64638137817,-0.407689520174,0.228811400302,0.526056097192,1335,1712,1504,1524,15.1619997025,799,14.013671875,212.4752888
30.6370220184,3.90887475014,-4.59570455551,0.102629438043,-1.02700436115,2.68264102936,14.2843255997,-0.551932264274,0.336681732866,0.502990191074,1295,1732,1504,1524,15.1619997025,864,17.1875,260.596869887
30.7394189835,3.91116333008,-4.00914478302,0.0408463254571,-1.52180254459,1.1724678278,13.5018444061,-0.541564489703,0.420890019489,0.482207737673,1294,1737,1504,1523,15.1619997025,802,14.16015625,214.69628485
30.8388588428,3.99026274681,-3.31260967255,0.0186850186437,0.0919902250171,2.48709797859,6.86253118515,-0.389364382021,0.507204518604,0.482890520533,1256,1744,1504,1524,15.1479997635,839,15.966796875,241.865035286
30.9362328053,4.09214353561,-2.87941241264,-0.0421600230038,-1.05318140984,-1.24266397953,13.0358753204,-0.353562952709,0.516806946772,0.486375628883,1236,1744,1504,1524,15.1479997635,839,15.966796875,241.865035286
31.0383839607,4.44499492645,-2.23427152634,-0.0980934053659,-0.562418699265,-2.46945357323,10.7827167511,-0.107460914457,0.517198644727,0.525938950069,1216,1747,1504,1524,15.1210002899,815,14.794921875,223.714017961
31.1366868019,4.79342222214,-1.9092965126,-0.0839256048203,-1.76929938793,-1.41585171223,10.1364250183,0.0664347212631,0.451254377644,0.552098779354,1215,1745,1504,1523,15.1210002899,888,18.359375,277.612114697
31.2390890121,5.05709695816,-1.7684648037,-0.0679146796465,0.747073233128,-0.761128664017,5.33435201645,0.16078241934,0.40970675148,0.557469190529,1218,1740,1504,1523,15.1210002899,794,13.76953125,208.209086023
31.3373479843,5.29868125916,-1.72397708893,-0.0748311728239,-3.03385901451,-0.910306811333,9.09215927124,0.206742696273,0.360825679163,0.55510198085,1220,1736,1504,1523,15.109000206,787,13.427734375,202.879641438
31.4397659302,5.50454092026,-1.72127103806,-0.0683908984065,-0.26924303174,0.454097300768,10.1090230942,0.211372706572,0.317449412944,0.550272319185,1239,1730,1504,1523,15.109000206,685,8.447265625,127.629738068
31.5380549431,5.67371702194,-1.71386277676,-0.0745294317603,0.0371275246143,-0.355093866587,8.91564273834,0.137021139968,0.23402723116,0.53941310156,1283,1707,1504,1523,15.1099996567,750,11.62109375,175.594722573
31.6405658722,5.64590978622,-1.60979735851,-0.0498907156289,-0.508534371853,-1.22201919556,8.52557563782,-0.0740292699952,0.0881567452541,0.531573790673,1329,1691,1504,1524,15.1099996567,721,10.205078125,154.198726965
31.7387108803,5.50259542465,-1.47515869141,-0.0304382387549,-1.5282381773,0.836535394192,11.554816246,-0.234147149561,-0.0273728793413,0.545209405438,1392,1662,1504,1524,15.1099996567,679,8.154296875,123.211422982
31.8411588669,5.0481877327,-1.14050066471,0.0106072090566,-1.14116227627,-1.5111041069,12.5869417191,-0.400260004413,-0.121628932585,0.567970418578,1577,1574,1504,1523,15.1099996567,757,11.962890625,180.759273237
31.9396409988,4.82540893555,-0.995038926601,0.0315170772374,-0.249439790845,-3.47828388214,13.0651664734,-0.470061448317,-0.168644629472,0.583229139132,1698,1524,1504,1523,15.1099996567,783,13.232421875,199.941889989
32.0380008221,4.03490304947,-0.541115701199,-0.0242515765131,-1.14728832245,2.73853373528,12.0382966995,-0.604949260108,-0.293749310603,0.636497506249,1874,1486,1504,1524,15.1470003128,847,16.357421875,247.765874257
32.1405589581,3.46902990341,-0.275281399488,-0.102214992046,1.49937903881,3.81692647934,5.53913640976,-0.637891121765,-0.333146265393,0.652604470481,1898,1485,1504,1524,15.1470003128,960,21.875,331.340631842
32.2385828495,2.80732083321,0.0331333130598,-0.150180801749,0.326644957066,3.0308713913,20.3920841217,-0.6146689637,-0.337356333702,0.641637387247,1898,1489,1504,1524,15.1470003128,927,20.263671875,306.933844229
32.3409938812,1.87164068222,0.538843631744,-0.1446531564,-1.07924664021,0.384553521872,13.7716588974,-0.612682231249,-0.25172125184,0.577397351858,1898,1488,1504,1524,15.0819997787,919,19.873046875,299.725288571
32.4391329288,1.35417461395,0.903625130653,-0.0809645652771,-2.42239379883,-2.58462262154,15.0567483902,-0.63646878281,-0.195403614717,0.553130005003,1898,1491,1504,1523,15.0819997787,863,17.138671875,258.485445426
32.5416409969,0.612942516804,1.55225419998,-0.0645752027631,0.540541291237,-2.49150443077,10.5576477051,-0.694981854843,-0.143177296302,0.557954334425,1898,1493,1504,1523,15.0329999924,879,17.919921875,269.390185411
32.6399488449,-0.100595936179,2.25986599922,-0.0978787615895,-0.864665329456,-1.81258535385,14.1519393921,-0.69662115911,-0.10049346247,0.578894232879,1898,1493,1504,1524,15.0329999924,875,17.724609375,266.4540526
32.7422199249,-0.544243693352,2.7027463913,-0.129521682858,0.121045075357,-0.570791065693,10.3149557114,-0.676508694852,-0.0798564381892,0.594494306701,1898,1493,1504,1523,15.0010004044,854,16.69921875,250.504987222
32.8412518501,-0.917357027531,3.08346533775,-0.14917396009,-0.227147862315,1.08872783184,8.90650558472,-0.64624562599,-0.0551955449469,0.615160220623,1898,1493,1504,1524,15.0010004044,863,17.138671875,257.097223728
32.9429218769,-1.4303933382,3.60764598846,-0.174591839314,0.282742619514,2.33431410789,12.5071029663,-0.619537670883,-0.0361055563721,0.634883123525,1898,1493,1504,1523,15.0010004044,828,15.4296875,231.460748427
33.0411880016,-1.80968546867,3.98268437386,-0.180716469884,-1.53081917763,0.303818404675,10.9114942551,-0.608077362833,-0.0307042741357,0.64604356057,1898,1493,1504,1523,15.0010004044,891,18.505859375,277.606403968
33.1397650242,-2.18531060219,4.35340833664,-0.181522890925,0.943662524223,-0.178066894412,11.486946106,-0.593590821729,-0.0223147370754,0.663991920973,1898,1493,1504,1523,15.0010004044,871,17.529296875,262.956989511
33.2419450283,-2.49187707901,4.65109443665,-0.201324701309,0.0906634926796,0.111418545246,12.1215400696,-0.592262015394,-0.019144164481,0.672203974825,1898,1488,1504,1523,14.9790000916,852,16.6015625,248.674806208
33.3402199745,-2.94909620285,5.07756710052,-0.214657485485,0.461745738983,-1.42088234425,6.5363612175,-0.559077840977,-0.0107125640814,0.683207577531,1898,1486,1504,1524,14.9790000916,791,13.623046875,204.059620388
33.442991972,-3.29804778099,5.40540647507,-0.279216587543,-2.19355988503,-0.575543940067,13.321723938,-0.490635161352,0.00458239580847,0.686512930236,1898,1484,1504,1524,14.9809999466,799,14.013671875,209.938817611
33.5412538052,-3.51481890678,5.61027050018,-0.30249029398,-2.30355858803,-2.23068118095,13.6118888855,-0.432645256836,0.0103975212514,0.690363132974,1898,1486,1504,1523,14.9809999466,819,14.990234375,224.568700371
33.643584013,-3.59717941284,5.68221282959,-0.288089096546,0.0481999032199,-1.39236068726,10.231926918,-0.41864405866,0.0122463990524,0.691995596671,1898,1485,1504,1524,14.9809999466,703,9.326171875,139.715380361
33.7418568134,-3.81266689301,5.8737449646,-0.305898368359,0.22118063271,0.753689229488,3.15900492668,-0.335571205545,0.0215266120474,0.701646050342,1898,1489,1504,1523,15.001999855,746,11.42578125,171.409568656
33.8442869186,-3.98248696327,6.00266885757,-0.316678524017,1.51442420483,-3.26357555389,10.0092859268,-0.2960918973,0.029901355889,0.710919192897,1898,1488,1504,1523,15.001999855,749,11.572265625,173.607127228
33.9427938461,-4.06459712982,6.06238985062,-0.306625574827,-0.092049986124,-1.6104183197,10.3116521835,-0.276136355549,0.033402067137,0.718763270635,1898,1488,1504,1524,15.0329999924,751,11.669921875,175.433935458
34.0450458527,-4.15979623795,6.11177825928,-0.307096213102,2.14273071289,2.80050945282,0.858940422535,-0.252912076861,0.0407927926988,0.728185409202,1898,1488,1504,1523,15.0329999924,699,9.130859375,137.264208915
34.1433978081,-4.23336696625,6.14557218552,-0.321112245321,-0.240747585893,1.18685889244,5.49485826492,-0.229862186336,0.0461542020274,0.735606367327,1898,1488,1504,1524,15.0570001602,784,13.28125,199.975783378
34.2453768253,-4.27719449997,6.17553901672,-0.310465663671,-0.274689108133,-0.159057557583,10.4660844803,-0.21690277152,0.0514498462784,0.739660022258,1898,1488,1504,1524,15.0570001602,736,10.9375,164.685939252
34.3437099457,-4.31879711151,6.1935377121,-0.27021074295,0.77825319767,-1.09458959103,3.78119921684,-0.210537226041,0.0555542665554,0.742290211901,1898,1489,1504,1524,15.0570001602,756,11.9140625,179.390040971
34.4424169064,-4.33854198456,6.21309423447,-0.257182508707,-1.11857664585,-2.94403290749,9.16811466217,-0.207352344475,0.0574276635184,0.743565953052,1898,1487,1504,1524,15.0780000687,781,13.134765625,198.045996996
34.5443518162,-4.3713889122,6.23073005676,-0.241695016623,-4.67088365555,-2.87474441528,10.1490602493,-0.198054816918,0.0579980667729,0.745254852047,1898,1486,1504,1524,15.0780000687,787,13.427734375,202.463379829
34.6431310177,-4.40572881699,6.24410676956,-0.211033895612,1.09440410137,-1.90071940422,4.54482460022,-0.188821523136,0.058731222406,0.745704371845,1898,1486,1504,1523,15.1009998322,776,12.890625,194.661325962
34.7450108528,-4.41410112381,6.24833774567,-0.198570922017,0.330637335777,-1.68722307682,9.41639137268,-0.182999522779,0.0617791258325,0.743430299342,1898,1482,1504,1524,15.1009998322,768,12.5,188.762497903
34.8435909748,-4.41886615753,6.25886154175,-0.168961033225,-2.08084416389,-0.656121730804,13.8604249954,-0.181547661512,0.062886669661,0.74253715113,1898,1483,1504,1523,15.1129999161,688,8.59375,129.877343029
34.945994854,-4.4278421402,6.2738609314,-0.157521530986,2.82204437256,-2.84668755531,9.20666122437,-0.1814121573,0.0612205124421,0.739915921554,1898,1482,1504,1524,15.1129999161,647,6.591796875,99.6218256188
35.0440728664,-4.4492521286,6.26800251007,-0.10558591783,0.962885200977,0.36923545599,11.9888563156,-0.179132272582,0.0631300722502,0.736932384734,1898,1480,1504,1523,15.1129999161,703,9.326171875,140.946434764
35.1465468407,-4.45033025742,6.27483415604,-0.0873566865921,-2.9047305584,-2.47371315956,14.5014181137,-0.177930025438,0.067743052228,0.733477302056,1855,1479,1504,1523,15.1239995956,712,9.765625,147.695308551
35.2449438572,-4.43587684631,6.26041793823,-0.0494386330247,-1.60983872414,-5.32935380936,14.1048212051,-0.135594232683,0.0664225255344,0.72821279808,1742,1491,1504,1524,15.1239995956,700,9.1796875,138.833590038
35.3471088409,-4.39821767807,6.21609973907,-0.0486806854606,-3.63265275955,-2.35970258713,13.5832529068,-0.0717695085637,0.0577167622786,0.724896846391,1603,1490,1504,1524,15.1239995956,726,10.44921875,158.033980149
35.4457299709,-4.24216413498,6.01559829712,0.0333387032151,1.10376870632,1.56304979324,4.35063743591,0.113679984143,0.0251004829323,0.712771339866,1490,1425,1504,1524,15.1470003128,772,12.6953125,192.295902409
35.5438759327,-3.91073417664,5.58876657486,0.131836459041,0.491068631411,-4.69573402405,13.2304229736,0.363290727574,-0.014129232139,0.691776090109,1496,1330,1504,1524,15.1470003128,723,10.302734375,156.055520801
35.646479845,-3.63033819199,5.17289638519,0.167853876948,-0.26334849,1.93755614758,11.5853538513,0.514950841803,-0.0543928304771,0.668998204733,1508,1216,1504,1524,15.1649999619,739,11.083984375,168.088622625
35.7453968525,-3.29317140579,4.44600296021,0.143574267626,-1.6660643816,-0.245981991291,14.4794130325,0.612082757881,-0.197757669102,0.584954359236,1522,1103,1504,1524,15.1649999619,783,13.232421875,200.66967723
35.847124815,-3.29317140579,4.44600296021,0.143574267626,0.85456776619,0.426198780537,8.17808246613,0.612082757881,-0.197757669102,0.584954359236,1518,1104,1504,1523,15.1859998703,843,16.162109375,245.437790873
35.9451789856,-3.09914731979,3.20310044289,0.0432854034007,0.735246837139,-0.33597099781,11.2849397659,0.569265493061,-0.380573591468,0.489243445491,1517,1103,1504,1523,15.1859998703,884,18.1640625,275.839450769
36.0477910042,-3.21951436996,2.19361233711,-0.0179833937436,-1.83861243725,-3.60839891434,15.0600748062,0.469781005338,-0.494720882013,0.458219782926,1517,1103,1504,1523,15.1859998703,971,22.412109375,340.350290062
36.1464989185,-3.39881849289,1.49442946911,-0.000976438866929,0.543903887272,1.45166158676,13.6307191849,0.367542155543,-0.52283634243,0.483215617562,1517,1103,1504,1523,15.1529998779,879,17.919921875,271.540573984
36.2485899925,-3.68909573555,0.654248833656,0.0988796874881,-0.205833002925,0.327618569136,11.5374546051,0.279101554952,-0.507886318957,0.526360156461,1517,1103,1504,1524,15.1529998779,920,19.921875,301.876169443
36.3473649025,-3.91307234764,0.0905242562294,0.145825058222,0.169495597482,-1.68216633797,11.8740606308,0.238369309631,-0.504848031926,0.548715267889,1514,1103,1504,1524,15.0780000687,899,18.896484375,284.921192704
36.4494428635,-4.09758758545,-0.339493125677,0.175809755921,2.71081471443,-3.07495069504,12.0339365005,0.20555256135,-0.506463512502,0.570552350623,1493,1103,1504,1523,15.0780000687,823,15.185546875,228.967676824
36.5473628044,-4.34492206573,-0.860207557678,0.220122471452,0.922202765942,-1.3857935667,9.20158004761,0.192878839002,-0.511671939059,0.583567774445,1490,1105,1504,1523,15.0780000687,879,17.919921875,270.196583262
36.6457128525,-4.47836017609,-1.14240384102,0.250416576862,2.30287313461,1.19935679436,8.05990123749,0.183714799823,-0.517429726765,0.591189986343,1488,1105,1504,1523,15.0430002213,844,16.2109375,243.8611364
36.7484219074,-4.86595726013,-1.92702829838,0.277467757463,1.61081087589,-0.135340109468,14.9546642303,0.175940292819,-0.542795721504,0.595492662234,1488,1103,1504,1523,15.0430002213,869,17.431640625,262.224173779
36.8463568687,-5.10511875153,-2.38120698929,0.246332287788,-0.72031223774,-0.799591720104,13.4248580933,0.174356078332,-0.551409997771,0.590288245016,1486,1103,1504,1524,15.0369997025,847,16.357421875,245.966547868
36.9493229389,-5.29890441895,-2.73582005501,0.220209136605,0.607802927494,0.158853307366,10.7874946594,0.160903776578,-0.53341052955,0.585588978908,1472,1105,1504,1523,15.0369997025,831,15.576171875,234.21889185
37.0471158028,-5.5161614418,-3.17820358276,0.206007018685,1.15814721584,-1.73693907261,9.63050842285,0.12464574097,-0.44921925828,0.584877419044,1322,1175,1504,1523,15.0270004272,807,14.404296875,216.453375294
37.1493639946,-5.5646147728,-3.42328071594,0.252544999123,1.48657023907,-1.09077358246,12.792304039,0.193203526612,-0.269359759314,0.583983891643,1226,1245,1504,1524,15.0270004272,757,11.962890625,179.766362532
37.2478330135,-5.46426057816,-3.6725525856,0.278390914202,1.20986807346,-1.54024922848,9.28715419769,0.251116455449,-0.194604344544,0.585000993447,1103,1306,1504,1523,15.0270004272,764,12.3046875,184.902544319
37.3500418663,-5.07351160049,-4.06180858612,0.295178204775,-0.0996719449759,-1.0735886097,11.9332323074,0.468977372528,0.0242569916572,0.602592075733,1097,1349,1504,1524,15.0469999313,783,13.232421875,199.108251044
37.4484019279,-4.66418933868,-4.32785081863,0.261763036251,0.815965652466,1.23381495476,12.2667064667,0.567450730648,0.143872857387,0.630379955763,1097,1371,1504,1524,15.0469999313,808,14.453125,217.476170882
37.5509228706,-4.17885160446,-4.57968616486,0.209112122655,-0.424446672201,1.00210654736,13.6032304764,0.610306403922,0.219530361565,0.652873880147,1097,1381,1504,1523,15.0659999847,842,16.11328125,242.762695066
37.6491940022,-3.84706115723,-4.73130989075,0.193776890635,1.18290269375,0.165476694703,12.5490436554,0.627418421647,0.265045386303,0.667242880128,1097,1396,1504,1523,15.0659999847,852,16.6015625,250.119140371
37.7514519691,-2.53383708,-5.17960119247,0.145518675447,0.444462507963,1.92535674572,16.240190506,0.628420078329,0.333276840175,0.689779680085,1097,1398,1504,1524,15.0659999847,871,17.529296875,264.096386451
37.8497908115,-2.2329120636,-5.27972269058,0.139247104526,2.13060474396,1.64486074448,13.3616094589,0.629554028791,0.345170328934,0.693454854313,1097,1406,1504,1524,15.0500001907,959,21.826171875,328.483890881
37.9492139816,-0.821394085884,-5.62213516235,0.110192045569,-0.0274834446609,0.867414534092,17.6743450165,0.610406760217,0.380957428014,0.696274338231,1097,1443,1504,1524,15.0500001907,901,18.994140625,285.861820028
38.0507819653,0.198291599751,-5.81165027618,0.124039903283,4.11698389053,4.5387597084,9.64409542084,0.587879840764,0.430920328796,0.698743495971,1097,1488,1504,1523,15.0069999695,976,22.65625,340.002343059
38.1488368511,0.923517048359,-5.90687942505,0.126832544804,2.86600756645,2.48733091354,9.06387329102,0.571926377355,0.475041974691,0.697226162819,1097,1491,1504,1524,15.0069999695,847,16.357421875,245.475829579
38.2512388229,1.58987665176,-5.95948266983,0.104725912213,2.12408804893,0.402671545744,8.65157318115,0.54542455044,0.492448977548,0.682735436542,1097,1506,1504,1524,14.9600000381,811,14.599609375,218.410156806
38.3494958878,2.40165567398,-6.02858972549,0.0864257961512,-3.08256936073,0.055662356317,12.0868625641,0.410943036563,0.391648588484,0.587988049064,1097,1526,1504,1523,14.9600000381,895,18.701171875,279.769531963
38.4518108368,2.8214430809,-6.068171978,0.118508890271,-0.518196344376,-1.19963383675,11.0591268539,0.348960027298,0.314967263065,0.547279278715,1097,1556,1504,1524,14.954000473,862,17.08984375,255.561531521
38.5502169132,3.21250724792,-6.1018075943,0.180631265044,-2.91530275345,-0.767826795578,15.1184949875,0.29826217334,0.261729217371,0.521260563689,1097,1582,1504,1524,14.954000473,764,12.3046875,184.004302695
38.6529929638,3.55253219604,-6.10393810272,0.239809691906,1.07765543461,3.37182092667,10.659321785,0.232563254077,0.294301538272,0.51361168419,1097,1615,1504,1523,14.954000473,755,11.865234375,177.432720456
38.7508568764,3.97734165192,-6.00568723679,0.296588808298,-2.88028717041,-0.661003828049,11.9114685059,0.173273142875,0.385227209787,0.514962659941,1097,1640,1504,1524,14.9499998093,843,16.162109375,241.623532074
38.8536589146,4.32636165619,-5.83465957642,0.305540144444,-1.11234426498,-0.308739125729,18.2417697906,0.127850614446,0.437572989497,0.511833263108,1097,1691,1504,1524,14.9499998093,839,15.966796875,238.703610236
38.9515328407,4.70317459106,-5.60736703873,0.332361996174,-1.0710297823,0.529717385769,8.26760196686,0.0696849701995,0.498753608706,0.504380802637,1097,1692,1504,1524,14.9499998093,783,13.232421875,197.824704508
39.0503380299,5.0067782402,-5.35607242584,0.32075086236,-2.38016819954,1.59608089924,7.21773958206,0.0297682213592,0.527209743872,0.495579275105,1097,1693,1504,1523,14.9750003815,808,14.453125,216.435552389
39.1526639462,5.40729236603,-5.01678276062,0.281148701906,-0.957770884037,0.78952652216,4.71644830704,0.032508348201,0.458054422711,0.483728558047,1097,1698,1504,1524,14.9750003815,771,12.646484375,189.38110834
39.2510838509,5.58689975739,-4.84598588943,0.236734241247,-2.17202544212,0.14227104187,18.7919368744,0.0359515769027,0.380425032751,0.475384143937,1142,1701,1504,1524,15.0010004044,760,12.109375,181.652739272
39.3533308506,5.82609939575,-4.56427192688,0.259090781212,-2.32128167152,0.785309910774,12.5611600876,-0.0215276964761,0.327638355817,0.46268903479,1258,1691,1504,1523,15.0010004044,776,12.890625,193.372270838
39.451887846,5.88569450378,-4.38999652863,0.26993483305,2.02503347397,-1.00340330601,6.80462312698,-0.0987988919413,0.296852281541,0.461475761205,1286,1692,1504,1523,15.0200004578,807,14.404296875,216.352545657
39.5537648201,5.85994243622,-3.93613862991,0.286496758461,-3.30535888672,3.90033459663,6.23908090591,-0.283282294925,0.213692832603,0.475143511401,1303,1701,1504,1524,15.0200004578,780,13.0859375,196.550787241
39.6521019936,5.7344827652,-3.49479341507,0.330788463354,-1.17192697525,-1.87962508202,9.43492794037,-0.459288984144,0.153714149274,0.498407469355,1303,1710,1504,1524,15.045999527,789,13.525390625,203.503020946
39.7543818951,5.58522844315,-3.10324978828,0.320684731007,-0.866383075714,1.54684984684,12.2021150589,-0.543604493276,0.142641017135,0.505968575093,1303,1709,1504,1523,15.045999527,727,10.498046875,157.953608316
39.8526699543,5.28795146942,-2.30737280846,0.251508057117,-0.192463979125,-0.267076551914,13.1883249283,-0.558155939121,0.174356967894,0.500519899777,1311,1711,1504,1525,15.045999527,752,11.71875,176.320306957
39.9556088448,5.06995487213,-1.70451259613,0.169544100761,-0.137622371316,2.66518330574,5.42629432678,-0.398516813588,0.161298439695,0.529999537931,1315,1708,1504,1530,15.0729999542,847,16.357421875,246.555419173
40.0534448624,4.92386054993,-1.38625633717,0.113007619977,-1.54146444798,0.89185410738,12.4780082703,-0.307768088721,0.130017455401,0.549582430875,1319,1704,1505,1548,15.0729999542,763,12.255859375,184.732567798
40.151763916,4.85945653915,-1.27659237385,0.107132285833,-1.67817616463,-0.341572463512,11.7777414322,-0.25894333469,0.109400844923,0.559682766983,1318,1705,1505,1561,15.0970001221,763,12.255859375,185.026710481
40.2544999123,4.69064092636,-0.997674763203,0.0799784213305,-0.0835611000657,2.07496237755,2.34219622612,-0.1778961079,0.1027666187,0.570549139101,1319,1705,1507,1565,15.0970001221,765,12.353515625,186.501026899
40.3525350094,4.58193206787,-0.79604101181,0.0801436603069,-3.6402425766,-1.65052115917,14.6504554749,-0.143951064138,0.13015189771,0.577164688073,1319,1707,1507,1592,15.0970001221,754,11.81640625,178.392286599
40.4550728798,4.51410102844,-0.616422176361,0.081463880837,-1.97678756714,1.50666964054,10.1943740845,-0.134039027261,0.164550466203,0.590850177305,1319,1709,1507,1596,15.1099996567,753,11.767578125,177.808101429
40.5537269115,4.47391939163,-0.354397982359,0.0950711220503,-1.81726098061,0.789516746998,7.95119428635,-0.140700898026,0.218520884892,0.633873956899,1319,1715,1507,1594,15.1099996567,780,13.0859375,197.728511133
40.6556038857,4.45772695541,-0.150030389428,0.10065959394,-1.8237105608,0.592767179012,6.87866163254,-0.149387008187,0.253890547859,0.665885245467,1318,1717,1506,1594,15.1129999161,777,12.939453125,195.553953993
40.7538528442,4.45644140244,0.169410601258,0.119726918638,-1.39238607883,-0.322423934937,14.1722831726,-0.152218066974,0.294823960761,0.718691076786,1319,1721,1507,1607,15.1129999161,795,13.818359375,208.836864075
40.8562920094,4.45153141022,0.288551807404,0.119212314487,-2.35515737534,1.67159092426,10.3677244186,-0.15625562828,0.309418076424,0.746198237152,1319,1724,1507,1625,15.1129999161,803,14.208984375,214.740379667
40.954761982,4.43685865402,0.664937794209,0.129904806614,-1.71244132519,-1.5340474844,6.36466884613,-0.166131708904,0.329296984891,0.810221360706,1320,1725,1507,1628,15.1120004654,804,14.2578125,215.464069136
41.0570847988,4.37823963165,1.09352064133,0.160418584943,0.447808921337,1.43049442768,7.40824317932,-0.196154263736,0.347982966447,0.906609935278,1332,1721,1507,1628,15.1120004654,782,13.18359375,199.230474886
41.1550400257,4.28583240509,1.38004457951,0.162117853761,-2.01427936554,1.25134122372,14.3684530258,-0.243170426241,0.3400679687,0.992325325309,1336,1721,1506,1629,15.1120004654,788,13.4765625,203.657818772
41.2534408569,4.23808717728,1.52348399162,0.154749676585,-1.36856222153,-0.701254665852,13.2418193817,-0.258128618413,0.337623221425,1.02071509105,1341,1723,1507,1630,15.1120004654,895,18.701171875,282.612118079
41.3557488918,3.95830273628,1.98050665855,0.174837365746,-3.02142429352,0.495131254196,16.8599472046,-0.301590999096,0.334475456938,1.13794159079,1344,1724,1507,1634,15.1120004654,845,16.259765625,245.717585692
41.4541368484,3.60948371887,2.42263746262,0.161365404725,0.879375398159,1.68572127819,12.3665733337,-0.30935159856,0.351648378536,1.27443837326,1347,1724,1507,1634,15.1149997711,764,12.3046875,185.985348746
41.5567479134,3.38971209526,2.65728211403,0.157710790634,-0.845276772976,0.0992947369814,10.7885036469,-0.304626981049,0.358004100996,1.34363398381,1347,1724,1506,1633,15.1149997711,835,15.771484375,238.385982718
41.655110836,2.97778868675,3.05381250381,0.150021672249,-1.58714962006,0.189726129174,5.95442676544,-0.291613113081,0.365578863372,1.48399841607,1348,1723,1506,1633,15.1129999161,791,13.623046875,205.885106279
41.757174015,2.53145599365,3.38212561607,0.139598146081,-0.874726176262,0.34313595295,11.9742012024,-0.284951160986,0.369785478081,1.61405213538,1350,1724,1506,1633,15.1129999161,773,12.744140625,192.602196196
41.8555150032,2.20848560333,3.57298088074,0.110245011747,-2.08761429787,1.00815463066,14.3601732254,-0.274243453458,0.37445287521,1.70533981463,1350,1724,1506,1634,15.1129999161,787,13.427734375,202.933348483
41.9579389095,1.74607777596,3.79262709618,0.0877099484205,-2.28572940826,0.765701413155,5.27103900909,-0.256783351897,0.373866621928,1.83536543062,1350,1724,1506,1633,15.1079998016,835,15.771484375,238.275582808
42.0565178394,1.42438054085,3.9245455265,0.108195237815,-3.01041603088,0.367464840412,16.9619483948,-0.246563309866,0.374962602636,1.93648865421,1354,1724,1504,1530,15.1079998016,795,13.818359375,208.767770696
42.1587779522,0.928553044796,4.07694673538,0.0782688260078,-1.56858122349,0.269631683826,15.364033699,-0.249472363005,0.360828878356,2.05431788003,1385,1723,1504,1523,15.0989999771,828,15.4296875,232.972851209
42.2571508884,0.733377933502,4.1077413559,0.0733395069838,-0.0793995857239,1.42925226688,10.1022768021,-0.258255558348,0.346772711671,2.07868108771,1385,1723,1504,1523,15.0989999771,840,16.015625,241.819921508
42.3594179153,0.198465570807,4.13537883759,0.0642946213484,1.32674229145,2.17911314964,9.37900829315,-0.293606780742,0.306057165911,2.16248592762,1418,1755,1504,1523,15.0989999771,863,17.138671875,258.776806248
42.4575300217,-0.191686078906,4.11876058578,0.0553255788982,-0.450190961361,2.33954668045,10.7573404312,-0.314085787988,0.320312984964,2.18535699154,1484,1754,1504,1523,15.093000412,737,10.986328125,165.816654917
42.55605793,-0.445622414351,4.10112285614,0.0957849100232,2.48764014244,0.890394330025,4.86220645905,-0.338932123116,0.332380795205,2.19215231718,1485,1755,1504,1523,15.093000412,731,10.693359375,161.394877453
42.6582958698,-1.19656026363,4.02920389175,0.0599935539067,-1.91320407391,-0.131625384092,11.2201089859,-0.295244427351,0.30662415143,2.2201251745,1492,1757,1504,1523,15.0780000687,761,12.158203125,183.321387554
42.7572479248,-1.43386554718,3.99116897583,0.0419997051358,-2.38222146034,1.50074660778,11.8256340027,-0.249379095007,0.268055020978,2.22652823823,1667,1696,1503,1523,15.0780000687,787,13.427734375,202.463379829
42.8589730263,-1.86881291866,3.80283927917,0.0784515589476,1.35156059265,1.21778905392,4.53719234467,-0.279880749476,0.173950599121,2.23460239289,1821,1623,1504,1524,15.0780000687,821,15.087890625,227.49521588
42.9573988914,-2.19185352325,3.52519106865,0.0829796493053,-3.0850315094,-1.36267018318,15.2254743576,-0.43657118298,0.02798212956,2.24391824093,1898,1599,1504,1523,15.079000473,815,14.794921875,223.092633951
43.0598349571,-2.639585495,3.01773524284,0.1215621382,-1.5792952776,-1.5684992075,13.5615549088,-0.523919326392,-0.0334825787731,2.24763976293,1898,1594,1504,1523,15.079000473,855,16.748046875,252.54380675
43.1584928036,-2.98862409592,2.53151774406,0.118427306414,-0.72587543726,-1.42156970501,5.35581493378,-0.636245897355,-0.111817996401,2.25188157942,1898,1595,1504,1523,15.079000473,932,20.5078125,309.237314388
43.2607219219,-3.48153781891,1.83213210106,0.11256070435,0.474749952555,0.133672088385,12.0454835892,-0.679549688167,-0.142515474929,2.25068668952,1898,1595,1504,1523,15.0620002747,862,17.08984375,257.407231257
43.3588027954,-3.87270665169,1.25581896305,0.101435780525,0.49730193615,1.10386872292,9.86471652985,-0.663512708301,-0.141283731863,2.24600553725,1898,1598,1504,1523,15.0620002747,862,17.08984375,257.407231257
43.4612309933,-4.37531089783,0.509498596191,0.101985812187,-1.88749098778,0.319930166006,12.4680728912,-0.588259698652,-0.0970337675877,2.23681681722,1796,1692,1504,1523,15.0329999924,764,12.3046875,184.976367094
43.5598688126,-4.75296449661,0.0138675738126,0.064011901617,-0.372153759003,-0.0294614005834,13.3037443161,-0.556275819459,-0.0491958068094,2.2289387561,1764,1754,1504,1524,15.0329999924,780,13.0859375,196.720898338
43.6579148769,-5.01757192612,-0.257608115673,0.0247699078172,-1.54049015045,-3.84615802765,17.6665229797,-0.456963485432,0.0517579532814,2.20770187928,1756,1815,1504,1523,15.0290002823,820,15.0390625,226.022074558
43.7605819702,-5.25712823868,-0.421495884657,0.00314887519926,0.105906628072,-1.63855218887,3.39713263512,-0.370532511123,0.136846615712,2.19851144763,1710,1842,1504,1523,15.0290002823,757,11.962890625,179.79028658
43.8586080074,-5.48235940933,-0.452065944672,-0.0163632407784,-1.68247675896,0.492269098759,10.5183038712,-0.236460447741,0.256795130042,2.20253000771,1671,1861,1504,1523,15.0290002823,808,14.453125,217.216019705
43.9609799385,-5.76039361954,-0.218431547284,-0.0171556770802,-1.42276716232,-1.15718960762,13.9812698364,-0.0127724864358,0.43025212834,2.23198324496,1645,1883,1504,1523,15.0489997864,780,13.0859375,196.930270642
44.0594499111,-5.87873220444,0.111076138914,-0.00810989458114,-3.47407031059,-1.23343241215,18.4561138153,0.111613238056,0.506421035559,2.26309291719,1630,1897,1504,1523,15.0489997864,832,15.625,235.140621663
44.1615509987,-5.98008346558,0.808831095695,-0.0242189411074,0.0867861658335,-1.61546671391,7.18695116043,0.286326955435,0.589103305972,2.32187621388,1620,1898,1504,1523,15.0410003662,846,16.30859375,245.297564566
44.25999403,-6.00610303879,1.38807928562,-0.0576723143458,-4.45620822906,-2.04815411568,16.0383148193,0.38068650675,0.616738988348,2.35697128044,1577,1901,1504,1523,15.0410003662,875,17.724609375,266.5958561
44.3627548218,-5.97094726562,1.9888818264,-0.087413482368,0.820341408253,-0.00149093102664,14.0161714554,0.478628989001,0.621394786444,2.3841686766,1545,1901,1504,1523,15.0410003662,864,17.1875,258.517193794
44.4610450268,-5.80183029175,2.96664977074,-0.157464951277,-1.80057215691,-3.38983154297,10.4979286194,0.568488882431,0.57348629679,2.37643427783,1485,1901,1504,1523,15.0170001984,915,19.677734375,295.500541013
44.5628619194,-5.69938516617,3.35558748245,-0.17254383862,-2.02903795242,-0.945719659328,11.8849115372,0.581394535794,0.559464284861,2.37130882096,1480,1901,1504,1523,15.0170001984,686,8.49609375,127.585841529
44.6613419056,-5.32800483704,4.25795698166,-0.231412217021,-2.7918639183,0.464973688126,14.8109140396,0.577145516506,0.465493784005,2.32675497587,1469,1901,1504,1523,14.986000061,847,16.357421875,245.132325217
44.7600688934,-5.01764822006,4.95628547668,-0.245253026485,-2.83282804489,-2.4489710331,15.084107399,0.436297688728,0.381155800849,2.28530752004,1453,1901,1504,1523,14.986000061,805,14.306640625,214.399317279
44.8622050285,-4.85284137726,5.31795120239,-0.231327280402,-3.94141530991,-3.19036102295,10.9034738541,0.351754697771,0.339826675914,2.26418408467,1440,1901,1504,1523,14.986000061,799,14.013671875,210.008887574
44.9604949951,-4.68118715286,5.71222162247,-0.176725149155,-3.54128289223,-3.81787872314,11.0675029755,0.219812034569,0.288297428602,2.22957175335,1440,1901,1504,1523,14.9930000305,765,12.353515625,185.216260142
45.0627889633,-4.62176465988,5.8900513649,-0.175178170204,-2.89317369461,-0.421744197607,11.2163696289,0.1708655118,0.270636416983,2.21247598834,1442,1901,1504,1523,14.9930000305,760,12.109375,181.555859744
45.1613898277,-4.57220220566,6.0343375206,-0.155759230256,-1.69294023514,-0.511724948883,14.858382225,0.135789915475,0.254970573999,2.19838310467,1443,1901,1504,1523,15.0209999084,755,11.865234375,178.22768446
45.263725996,-4.51353883743,6.19069766998,-0.0977817252278,-0.573132038116,2.45113229752,7.54084205627,0.0903083649897,0.226818784513,2.17660136695,1444,1900,1504,1523,15.0209999084,795,13.818359375,207.565574906
45.3617968559,-4.50115823746,6.26321458817,-0.0462329760194,-2.51401209831,1.99156761169,9.28788280487,0.0607999027751,0.201051649805,2.16106788437,1443,1900,1504,1524,15.0209999084,763,12.255859375,184.095262549
45.464124918,-4.48173856735,6.32102394104,0.00870140269399,0.665275037289,0.357956260443,10.8717308044,0.0456542315601,0.187768513624,2.1521818904,1443,1901,1504,1523,15.045999527,774,12.79296875,192.483001761
45.5626418591,-4.46245479584,6.36336565018,0.0914088413119,-2.70881986618,-0.195372328162,11.0666160583,0.0307443995832,0.164386880302,2.14169093677,1432,1865,1504,1523,15.045999527,653,6.884765625,103.588180337
45.6650729179,-4.39818382263,6.33532142639,0.141688972712,-0.543354392052,-1.20791184902,5.952709198,0.0524836083835,0.0788269108128,2.13480016024,1432,1750,1504,1523,15.0850000381,723,10.302734375,155.416748439
45.7634949684,-4.21817731857,6.15051841736,0.177183270454,-1.93173623085,2.59442543983,6.49035835266,0.0722427908468,-0.162856773492,2.12153855381,1426,1720,1504,1524,15.0850000381,787,13.427734375,202.557373558
45.8655018806,-3.9450135231,5.8758263588,0.197735056281,-1.44742584229,2.85882973671,9.93626785278,0.0855759866035,-0.390028279968,2.11272912477,1397,1665,1504,1523,15.0850000381,687,8.544921875,128.90014681
45.9639439583,-3.45339727402,5.36183404922,0.226659342647,-1.15129745007,-0.0670627877116,9.20403671265,0.127323049439,-0.560366977684,2.12314597665,1352,1643,1504,1524,15.1169996262,756,11.9140625,180.104878359
46.0622169971,-2.9515414238,4.92747306824,0.190644070506,-1.05662894249,-0.121295191348,3.21037435532,0.200141065598,-0.624485146597,2.13886149306,1306,1652,1503,1523,15.1169996262,779,13.037109375,197.081977549
46.1644668579,-2.09664750099,4.41057825089,0.126287773252,0.915843427181,0.444718003273,11.0902404785,0.348914196644,-0.602929130876,2.17848031951,1305,1661,1504,1518,15.1359996796,755,11.865234375,179.592183698
46.2632448673,-1.54227674007,4.20042610168,0.0134439151734,-0.687559127808,-0.364598542452,5.08584547043,0.442069020858,-0.548787422294,2.20505254967,1308,1664,1504,1518,15.1359996796,847,16.357421875,247.585932259
46.3652698994,-0.888629615307,4.02413415909,-0.150319337845,-1.97997915745,-0.0779723525047,15.8809566498,0.432388704499,-0.391323174158,2.2493610617,1319,1664,1504,1517,15.1339998245,919,19.873046875,300.758687919
46.4636788368,-0.657534003258,3.98454380035,-0.162246093154,-5.34215545654,-0.632969975471,9.81032752991,0.368115348798,-0.283191221684,2.26432072031,1326,1662,1504,1498,15.1339998245,759,12.060546875,182.52431429
46.5660238266,-0.146032005548,3.9025888443,-0.0584953799844,2.0246026516,0.769900202751,5.85696697235,0.203823498581,-0.10471518489,2.23886984854,1339,1662,1504,1482,15.1339998245,784,13.28125,200.998435169
46.6645200253,0.0265483781695,3.84868001938,-0.0319963246584,-0.754724800587,-1.02218067646,9.327003479,0.136308750617,-0.0561329972806,2.19843987397,1344,1663,1504,1461,15.1180000305,759,12.060546875,182.331348024
46.766726017,0.200614258647,3.7248146534,-0.0261824950576,-2.01859879494,-0.836427688599,14.0053863525,0.0870890310376,-0.0232091930854,2.10453528291,1348,1662,1504,1453,15.1180000305,735,10.888671875,164.614941738
46.8649837971,0.280704289675,3.65299725533,0.00222759321332,1.51399362087,0.0924895405769,10.0225744247,0.0894777018671,-0.0174200137987,2.05345507687,1351,1662,1504,1450,15.1260004044,779,13.037109375,197.199321678
46.9676790237,0.314979791641,3.61652064323,0.00133758201264,1.4309220314,0.662297844887,10.1289081573,0.0907431564599,-0.0162203946252,2.03773990027,1353,1663,1504,1448,15.1260004044,792,13.671875,206.800786779
47.0655958652,0.415907949209,3.50905323029,0.0124213322997,-2.49871063232,0.159562036395,13.457406044,0.0884500314318,-0.00872795800233,1.95832737141,1362,1664,1504,1432,15.1260004044,751,11.669921875,176.519243001
47.1641898155,0.504041552544,3.41394114494,0.0208586063236,-1.84655559063,0.520757973194,8.29386138916,0.0836736342005,-0.00556214801872,1.87366561359,1369,1661,1504,1424,15.1289997101,787,13.427734375,203.148189467
47.2671148777,0.586210370064,3.33154320717,0.0432915985584,-1.32131576538,-1.46530175209,7.6105427742,0.0884712144973,-0.020204839556,1.79354795246,1370,1659,1504,1422,15.1289997101,745,11.376953125,172.12192053
47.3648970127,0.713270664215,3.19188833237,0.0468806289136,-3.02348852158,0.25265917182,15.6553649902,0.119881229624,-0.0304589530575,1.68873031377,1371,1659,1504,1423,15.1289997101,775,12.841796875,194.283541199
47.4674069881,0.757323563099,3.14281606674,0.0621213726699,-2.70947766304,-0.0383676290512,12.0134029388,0.125613894953,-0.0293614137931,1.6708782472,1372,1660,1504,1425,15.1359996796,761,12.158203125,184.026558605
47.5656549931,0.89310580492,3.0326757431,0.0635224059224,-2.05178570747,-0.666655182838,13.1768951416,0.151204232831,-0.0141875336281,1.57933870616,1375,1658,1504,1423,15.1359996796,766,12.40234375,187.721871026
47.6678729057,1.08598077297,2.88374662399,0.102146111429,-1.62639927864,2.02661371231,7.728764534,0.169578012914,-0.00330478313222,1.4656035123,1377,1656,1505,1420,15.1359996796,722,10.25390625,155.203121715
47.7661178112,1.18302702904,2.81740069389,0.0969694554806,-1.41889035702,1.03539204597,11.1738157272,0.176200021313,0.000153683694188,1.41737707476,1378,1656,1505,1420,15.1459999084,775,12.841796875,194.501854292
47.8687579632,1.37599396706,2.67214441299,0.116455152631,-1.59309589863,1.42189228535,9.78706359863,0.180422612575,0.00665539907079,1.33180147275,1380,1656,1504,1423,15.1459999084,771,12.646484375,191.543651185
47.9673378468,1.42826843262,2.62757658958,0.126786127687,1.49306261539,-1.36472272873,2.81521916389,0.181898175036,0.00816704646383,1.31310425679,1385,1657,1505,1432,15.1459999084,760,12.109375,183.408592641
48.0692248344,1.63066697121,2.44190812111,0.11235653609,-2.14821505547,-1.3096152544,12.8085708618,0.17664573437,0.0117623902364,1.20422732488,1389,1657,1504,1435,15.1459999084,750,11.62109375,176.013084873
48.1676149368,1.72794783115,2.33444809914,0.135884672403,-2.96221423149,0.247557386756,11.1433563232,0.16320044687,0.0144092608848,1.15811134453,1391,1655,1504,1446,15.1459999084,749,11.572265625,175.273534096
48.2657928467,1.80497312546,2.22993159294,0.113445103168,-0.268077284098,-0.480543762445,5.78718900681,0.149597112398,0.0130299853933,1.10277042859,1398,1656,1504,1523,15.1579999924,759,12.060546875,182.81376944
48.3682749271,1.8570548296,2.14051222801,0.121639102697,-1.5985724926,-1.88741791248,16.5801258087,0.0405190584347,0.0399144014184,1.06360899132,1484,1682,1504,1523,15.1579999924,800,14.0625,213.159374893
48.4669868946,1.82126402855,2.13879299164,0.16312764585,0.323316216469,0.487338036299,7.7697725296,-0.0677856749176,0.0731986026658,1.04632436151,1485,1741,1504,1524,15.1599998474,769,12.548828125,190.24023246
48.568985939,1.78880095482,2.183147192,0.170215412974,0.336571186781,-2.48503160477,14.8703079224,-0.113259202748,0.138329835148,1.03373950936,1486,1758,1504,1524,15.1599998474,775,12.841796875,194.681638665
48.6673669815,1.73793339729,2.5015335083,0.161302372813,0.0739745348692,0.612109899521,8.74306583405,-0.11406805886,0.30271127624,1.01884691176,1486,1775,1504,1524,15.1599998474,781,13.134765625,199.123044871
48.7697927952,1.75603353977,2.62221598625,0.157641798258,-1.42484259605,-0.274823606014,3.94866538048,-0.105178672562,0.352944671284,1.01968260585,1486,1777,1504,1524,15.1619997025,847,16.357421875,248.011225602
48.8678338528,1.85095870495,3.00695419312,0.128884345293,-0.972151815891,0.0219974312931,10.5142354965,-0.0807516309881,0.439025676137,1.02926224607,1486,1770,1504,1524,15.1619997025,759,12.060546875,182.862008131
48.9702529907,1.98167490959,3.3965947628,0.067074380815,-0.842335343361,-0.554155647755,6.65920639038,-0.0522438379934,0.44646023224,1.04928747848,1486,1752,1504,1523,15.1599998474,731,10.693359375,162.111326493
49.068530798,2.05256676674,3.58194494247,0.044517852366,-1.22162997723,-1.44758558273,4.13588953018,-0.0339812983264,0.341735953289,1.0679236463,1487,1715,1504,1524,15.1599998474,711,9.716796875,147.306639142
49.1708438396,2.07321929932,3.66839718819,0.0443902015686,-0.952202796936,-1.13935232162,6.22007274628,-0.0245456641791,0.173827195507,1.08274827989,1487,1698,1504,1523,15.1669998169,738,11.03515625,167.370212823
49.2691318989,2.03445601463,3.63444709778,0.0723760798573,0.0843350887299,0.444556921721,8.08851909637,-0.0215498728792,-0.0176850648484,1.09507934256,1488,1643,1504,1523,15.1669998169,691,8.740234375,132.563133165
49.3676948547,1.83518159389,3.30596089363,0.0838328227401,-2.82964539528,-0.475654959679,11.7839517593,-0.0275308003499,-0.332495834024,1.11516827402,1488,1585,1504,1518,15.1669998169,850,16.50390625,250.314743072
49.4697618484,1.45842087269,2.64839839935,0.0337589383125,-2.86554408073,-3.49385595322,21.7657604218,-0.0523334810481,-0.601191923517,1.13501680522,1489,1512,1504,1460,15.1630001068,967,22.216796875,336.873293388
49.568256855,1.15684843063,2.14232325554,-0.0632714480162,0.110794559121,4.97842168808,8.35914802551,-0.0572177257551,-0.665556468921,1.13482938139,1489,1492,1504,1447,15.1630001068,980,22.8515625,346.498244628
49.6704888344,0.914345741272,1.65663075447,-0.172612130642,0.15203794837,-4.93566513062,5.80994701385,-0.0352900390963,-0.618777707025,1.11579319825,1489,1486,1504,1426,15.111000061,844,16.2109375,244.963477551
49.7696368694,0.653090655804,1.20470380783,-0.164250358939,-2.83472442627,-1.281919837,16.7496700287,-0.00023537319304,-0.467256935328,1.07588149751,1489,1484,1504,1414,15.111000061,870,17.48046875,264.147364348
49.8712108135,0.431550770998,0.756983101368,-0.00357471220195,0.268253922462,4.35092306137,7.82362747192,0.0176191506799,-0.228359256699,1.00325671315,1489,1485,1504,1399,15.111000061,787,13.427734375,202.90649496
49.9694638252,0.346719652414,0.574394404888,0.039230927825,-0.171851396561,-0.565115213394,8.46652030945,0.0153891230171,-0.121793022552,0.933107803548,1489,1485,1505,1453,15.0690002441,810,14.55078125,219.265726208
50.0722708702,0.299325466156,0.462567776442,0.0530774146318,0.444868922234,-0.9247584939,6.95412254333,0.0122781238213,-0.0622681142347,0.837373291136,1482,1484,1504,1520,15.0690002441,759,12.060546875,181.740383803
50.1700668335,0.243264824152,0.360066831112,0.0550229847431,-1.02542734146,0.0313099473715,13.4884576797,0.0144278470384,-0.0650719826759,0.767837973236,1308,1488,1504,1522,15.0690002441,806,14.35546875,216.322562098
50.2728128433,0.237076729536,0.319398343563,0.0453865714371,0.727857410908,-1.01186549664,7.59081172943,0.0144278470384,-0.0650719826759,0.767837973236,1228,1485,1504,1522,15.0900001526,821,15.087890625,227.676271834
50.3712539673,0.300531148911,0.121259853244,0.0425397343934,-0.942194283009,1.2967441082,10.3404006958,0.178930896394,-0.0381043946115,0.721197100008,1097,1483,1504,1522,15.0900001526,778,12.98828125,195.993166045
50.4733479023,0.492334038019,-0.196429148316,0.0486860089004,-0.661927819252,0.534300208092,13.373670578,0.317612401706,-0.0201817191672,0.705228080842,1097,1483,1504,1520,15.0970001221,768,12.5,188.712501526
50.5715048313,0.668836712837,-0.449385344982,0.0277442038059,-1.42454397678,-0.170249819756,11.936085701,0.3759012444,-0.015669464787,0.702279364623,1097,1485,1504,1520,15.0970001221,798,13.96484375,210.827247799
50.6698188782,0.864579200745,-0.721656024456,0.0265057943761,-2.65173602104,-0.591977059841,13.7892494202,0.403136534538,-0.0137743422945,0.702006304574,1097,1485,1504,1520,15.0970001221,848,16.40625,247.685158253
50.7728459835,1.22806954384,-1.18996047974,0.0226599276066,0.146993175149,0.354457616806,11.7985363007,0.428388626275,-0.00981770623691,0.70217467215,1097,1488,1504,1522,15.0880002975,811,14.599609375,220.278910593
50.8710339069,1.51165032387,-1.56964170933,0.0194092337042,-1.13069391251,1.11207413673,10.8108253479,0.44916599102,-0.00815015626281,0.702527897756,1097,1489,1504,1520,15.0880002975,843,16.162109375,243.853911058
50.9728319645,1.81948304176,-1.97067153454,0.0402907058597,-0.117442592978,-0.78676789999,15.0495491028,0.456769338578,-0.00680846012898,0.703056734646,1097,1487,1504,1520,15.0880002975,873,17.626953125,265.955473994
51.071269989,2.02098560333,-2.23017454147,0.0456592701375,-0.422226577997,0.947299599648,9.74687767029,0.464938072092,-0.00595713629423,0.703956915474,1097,1487,1504,1520,15.0699996948,851,16.552734375,249.449701979
51.1736068726,2.29329705238,-2.55897402763,0.0790353864431,-0.101248398423,-0.118125118315,10.2768688202,0.469658806304,-0.00610144742571,0.705212773069,1097,1483,1504,1522,15.0699996948,844,16.2109375,244.298823177
51.2727179527,2.69438409805,-3.05102205276,0.10722823441,1.39190602303,0.863828361034,9.62280750275,0.48612532624,-0.00949413251784,0.705237869251,1097,1482,1504,1522,15.0550003052,829,15.478515625,233.029057458
51.3744649887,2.83498120308,-3.23065638542,0.122085779905,-0.57994300127,3.88068318367,6.78549480438,0.488478392582,-0.0102432877181,0.705101606809,1102,1458,1504,1520,15.0550003052,848,16.40625,246.996098757
51.4727139473,3.22647356987,-3.72445726395,0.148181334138,0.242812559009,1.22075080872,10.1476325989,0.501858101433,-0.0134372201816,0.704317708033,1113,1444,1504,1520,15.0369997025,895,18.701171875,281.209515921
51.5749998093,3.46063566208,-4.00794363022,0.142617627978,-1.41385614872,-1.26477849483,16.1192321777,0.517371934983,-0.0149218919682,0.703578794076,1113,1446,1504,1520,15.0369997025,830,15.52734375,233.484663349
51.6735208035,3.81009721756,-4.44235134125,0.103407084942,-1.63214325905,-1.28555905819,14.2341718674,0.488474653446,-0.0131903232704,0.702667392235,1103,1452,1504,1520,15.0200004578,839,15.966796875,239.821296372
51.7721560001,3.92041659355,-4.57288837433,0.100391544402,1.33167672157,2.77374696732,11.2503967285,0.47398142734,-0.0134863174242,0.701342419892,1097,1454,1504,1522,15.0200004578,839,15.966796875,239.821296372
51.8745298386,4.22077274323,-4.96265220642,0.0914592295885,-2.18914365768,1.75214099884,12.8860435486,0.434605190022,-0.0189192376018,0.692064804529,1097,1457,1504,1520,15.0200004578,807,14.404296875,216.352545657
51.9725179672,4.40364170074,-5.20888519287,0.0971319749951,0.61367803812,0.829223871231,8.32002544403,0.379187981026,-0.0151676138503,0.684533723917,1097,1470,1504,1522,15.013999939,775,12.841796875,192.806737498
52.0749278069,4.58767461777,-5.46765613556,0.0885546207428,-1.72014725208,1.87822592258,9.08174037933,0.311675007872,-0.0119967186417,0.674321034442,1097,1460,1504,1520,15.013999939,792,13.671875,205.269530416
52.1731979847,4.65934514999,-5.56996965408,0.0966285765171,0.0390789955854,1.92323744297,10.8596868515,0.281246057267,-0.0117588028468,0.667977516038,1119,1432,1504,1522,15.0209999084,795,13.818359375,207.565574906
52.2759079933,4.71346855164,-5.68024349213,0.107947126031,-0.397096276283,2.27965927124,8.47416400909,0.251153696102,-0.0127145858687,0.660991384535,1186,1393,1504,1520,15.0209999084,743,11.279296875,169.426317326
52.3740530014,4.66439247131,-5.74468040466,0.119368687272,0.708864152431,0.492467790842,9.67440128326,0.0988386487109,-0.0673380788569,0.644631528365,1292,1276,1504,1520,15.0209999084,790,13.57421875,203.8983386
