timestamp,vel_x,vel_y,vel_z,acc_x,acc_y,acc_z,roll,pitch,yaw,rc0,rc1,rc2,rc3,vol,cur_raw,cur,power
3.00280094147,0.0319216735661,-0.000681025150698,-0.0177903212607,0.111596047878,-0.17885017395,9.7920589447,-0.0184797267821,-0.0109068871574,0.540467909113,1486,1487,1528,1522,16.1979999542,3,0,0
3.00307488441,0.0319216735661,-0.000681025150698,-0.0177903212607,0.111596047878,-0.17885017395,9.7920589447,-0.0184797267821,-0.0109068871574,0.540467909113,1486,1487,1528,1522,16.1979999542,525,0,0
3.00331878662,0.0319216735661,-0.000681025150698,-0.0177903212607,0.111596047878,-0.17885017395,9.7920589447,-0.0184797267821,-0.0109068871574,0.540467909113,1486,1487,1528,1522,16.1979999542,531,0,0
3.00356483459,0.0319216735661,-0.000681025150698,-0.0177903212607,0.111596047878,-0.17885017395,9.7920589447,-0.0184797267821,-0.0109068871574,0.540467909113,1486,1487,1528,1522,16.1979999542,528,0,0
3.0037958622,0.0319216735661,-0.000681025150698,-0.0177903212607,0.111596047878,-0.17885017395,9.7920589447,-0.0184797267821,-0.0109068871574,0.540467909113,1486,1487,1528,1522,16.1979999542,525,0,0
3.00402283669,0.0319216735661,-0.000681025150698,-0.0177903212607,0.111596047878,-0.17885017395,9.7920589447,-0.0184797267821,-0.0109068871574,0.540467909113,1486,1487,1528,1522,16.1979999542,528,0,0
3.00417995453,0.0319216735661,-0.000681025150698,-0.0177903212607,0.111596047878,-0.17885017395,9.7920589447,-0.0184797267821,-0.0109068871574,0.540467909113,1486,1487,1528,1522,16.1979999542,526,0,0
3.00521993637,0.0318922810256,-0.000115810864372,-0.0185808185488,0.126420632005,-0.153498888016,9.80669879913,-0.018506620497,-0.0109159869981,0.54047340568,1486,1487,1528,1522,16.1979999542,525,0,0
3.00538778305,0.0318922810256,-0.000115810864372,-0.0185808185488,0.126420632005,-0.153498888016,9.80669879913,-0.018506620497,-0.0109159869981,0.54047340568,1486,1487,1528,1522,16.1979999542,518,0,0
3.00554180145,0.0318922810256,-0.000115810864372,-0.0185808185488,0.126420632005,-0.153498888016,9.80669879913,-0.018506620497,-0.0109159869981,0.54047340568,1486,1487,1528,1522,16.1979999542,524,0,0
3.00568199158,0.0318922810256,-0.000115810864372,-0.0185808185488,0.126420632005,-0.153498888016,9.80669879913,-0.018506620497,-0.0109159869981,0.54047340568,1486,1487,1528,1522,16.1979999542,524,0,0
3.00588488579,0.0318922810256,-0.000115810864372,-0.0185808185488,0.126420632005,-0.153498888016,9.80669879913,-0.018506620497,-0.0109159869981,0.54047340568,1486,1487,1528,1522,16.1979999542,526,0,0
3.00602793694,0.0318922810256,-0.000115810864372,-0.0185808185488,0.126420632005,-0.153498888016,9.80669879913,-0.018506620497,-0.0109159869981,0.54047340568,1486,1487,1528,1522,16.1979999542,529,0,0
3.00616788864,0.0318922810256,-0.000115810864372,-0.0185808185488,0.126420632005,-0.153498888016,9.80669879913,-0.018506620497,-0.0109159869981,0.54047340568,1486,1487,1528,1522,16.1979999542,522,0,0
3.00630784035,0.0318922810256,-0.000115810864372,-0.0185808185488,0.126420632005,-0.153498888016,9.80669879913,-0.018506620497,-0.0109159869981,0.54047340568,1486,1487,1528,1522,16.1979999542,527,0,0
3.00644898415,0.0318922810256,-0.000115810864372,-0.0185808185488,0.126420632005,-0.153498888016,9.80669879913,-0.018506620497,-0.0109159869981,0.54047340568,1486,1487,1528,1522,16.1979999542,527,0,0
3.00660300255,0.0318922810256,-0.000115810864372,-0.0185808185488,0.126420632005,-0.153498888016,9.80669879913,-0.018506620497,-0.0109159869981,0.54047340568,1486,1487,1528,1522,16.1979999542,524,0,0
3.00674390793,0.0318922810256,-0.000115810864372,-0.0185808185488,0.126420632005,-0.153498888016,9.80669879913,-0.018506620497,-0.0109159869981,0.54047340568,1486,1487,1528,1522,16.1979999542,532,0,0
3.00688385963,0.0318922810256,-0.000115810864372,-0.0185808185488,0.126420632005,-0.153498888016,9.80669879913,-0.018506620497,-0.0109159869981,0.54047340568,1486,1487,1528,1522,16.1979999542,527,0,0
3.00702285767,0.0318922810256,-0.000115810864372,-0.0185808185488,0.126420632005,-0.153498888016,9.80669879913,-0.018506620497,-0.0109159869981,0.54047340568,1486,1487,1528,1522,16.1979999542,523,0,0
3.00727081299,0.0318922810256,-0.000115810864372,-0.0185808185488,0.126420632005,-0.153498888016,9.80669879913,-0.018506620497,-0.0109159869981,0.54047340568,1486,1487,1528,1522,16.1979999542,524,0,0
3.0075969696,0.0318922810256,-0.000115810864372,-0.0185808185488,0.126420632005,-0.153498888016,9.80669879913,-0.018506620497,-0.0109159869981,0.54047340568,1486,1487,1528,1522,16.1979999542,528,0,0
3.00776195526,0.0318922810256,-0.000115810864372,-0.0185808185488,0.126420632005,-0.153498888016,9.80669879913,-0.018506620497,-0.0109159869981,0.54047340568,1486,1487,1528,1522,16.1979999542,531,0,0
3.00790786743,0.0318922810256,-0.000115810864372,-0.0185808185488,0.126420632005,-0.153498888016,9.80669879913,-0.018506620497,-0.0109159869981,0.54047340568,1486,1487,1528,1522,16.1979999542,524,0,0
3.00805282593,0.0318922810256,-0.000115810864372,-0.0185808185488,0.126420632005,-0.153498888016,9.80669879913,-0.018506620497,-0.0109159869981,0.54047340568,1486,1487,1528,1522,16.1979999542,527,0,0
3.0083398819,0.0318922810256,-0.000115810864372,-0.0185808185488,0.126420632005,-0.153498888016,9.80669879913,-0.018506620497,-0.0109159869981,0.54047340568,1486,1487,1528,1522,16.1979999542,523,0,0
3.00856089592,0.0318922810256,-0.000115810864372,-0.0185808185488,0.126420632005,-0.153498888016,9.80669879913,-0.018506620497,-0.0109159869981,0.54047340568,1486,1487,1528,1522,16.1979999542,525,0,0
3.00870299339,0.0318922810256,-0.000115810864372,-0.0185808185488,0.126420632005,-0.153498888016,9.80669879913,-0.018506620497,-0.0109159869981,0.54047340568,1486,1487,1528,1522,16.1979999542,523,0,0
3.0088429451,0.0318922810256,-0.000115810864372,-0.0185808185488,0.126420632005,-0.153498888016,9.80669879913,-0.018506620497,-0.0109159869981,0.54047340568,1486,1487,1528,1522,16.1979999542,523,0,0
3.00898385048,0.0318922810256,-0.000115810864372,-0.0185808185488,0.126420632005,-0.153498888016,9.80669879913,-0.018506620497,-0.0109159869981,0.54047340568,1486,1487,1528,1522,16.1979999542,524,0,0
3.00912380219,0.0318922810256,-0.000115810864372,-0.0185808185488,0.126420632005,-0.153498888016,9.80669879913,-0.018506620497,-0.0109159869981,0.54047340568,1486,1487,1528,1522,16.1979999542,524,0,0
3.00926399231,0.0318922810256,-0.000115810864372,-0.0185808185488,0.126420632005,-0.153498888016,9.80669879913,-0.018506620497,-0.0109159869981,0.54047340568,1486,1487,1528,1522,16.1979999542,523,0,0
3.00940394402,0.0318922810256,-0.000115810864372,-0.0185808185488,0.126420632005,-0.153498888016,9.80669879913,-0.018506620497,-0.0109159869981,0.54047340568,1486,1487,1528,1522,16.1979999542,524,0,0
3.00955486298,0.0318922810256,-0.000115810864372,-0.0185808185488,0.126420632005,-0.153498888016,9.80669879913,-0.018506620497,-0.0109159869981,0.54047340568,1486,1487,1528,1522,16.1979999542,526,0,0
3.00969696045,0.0318922810256,-0.000115810864372,-0.0185808185488,0.126420632005,-0.153498888016,9.80669879913,-0.018506620497,-0.0109159869981,0.54047340568,1486,1487,1528,1522,16.1979999542,524,0,0
3.00983691216,0.0318922810256,-0.000115810864372,-0.0185808185488,0.126420632005,-0.153498888016,9.80669879913,-0.018506620497,-0.0109159869981,0.54047340568,1486,1487,1528,1522,16.1979999542,522,0,0
3.09951901436,0.0316136926413,0.000190035701962,-0.0194103531539,0.130739122629,-0.159714594483,9.75769138336,-0.018516070569,-0.0109054360773,0.54045974795,1485,1487,1528,1522,16.1979999542,522,0,0
3.19737386703,0.0300479419529,0.00118555361405,-0.0216758418828,0.096297390759,-0.175508901477,9.76584339142,-0.0185156714337,-0.0109232200535,0.540478262162,1486,1486,1528,1520,16.2000007629,526,0,0
3.30012083054,0.0292264185846,0.00210986705497,-0.021820018068,0.121651865542,-0.171190500259,9.77394199371,-0.0185673845593,-0.0109067622429,0.540448108914,1486,1486,1529,1520,16.2000007629,521,0,0
3.3981449604,0.0282004792243,0.00337384222075,-0.0238671880215,0.131775066257,-0.168282642961,9.82298660278,-0.0185211240365,-0.0110288682127,0.540375622384,1486,1487,1528,1522,16.2000007629,523,0,0
3.5007648468,0.0272441301495,0.0049959924072,-0.0242811683565,0.114904351532,-0.168369814754,9.76725482941,-0.0185737331354,-0.0110372812733,0.540316704016,1486,1487,1528,1522,16.1989994049,522,0,0
3.59920883179,0.0259626731277,0.00669084629044,-0.0251051504165,0.115406520665,-0.164035245776,9.76687526703,-0.0186470097171,-0.0110048868779,0.54035906238,1486,1487,1528,1522,16.1989994049,526,0,0
3.70127391815,0.0255484879017,0.0077157234773,-0.0249045193195,0.146043404937,-0.178389400244,9.77146720886,-0.0187024525491,-0.0110467800442,0.540377972877,1486,1487,1528,1522,16.1989994049,526,0,0
3.79953289032,0.0245251059532,0.00899527501315,-0.0235512927175,0.109697341919,-0.188446328044,9.79501533508,-0.018702037819,-0.0110800605903,0.540453548624,1486,1487,1528,1522,16.1970005035,525,0,0
3.90205383301,0.0242196638137,0.00940165575594,-0.0226417258382,0.124214097857,-0.161949768662,9.77567100525,-0.0186901277918,-0.0111119154147,0.540477971454,1486,1489,1528,1522,16.1970005035,518,0,0
4.00077795982,0.0226864479482,0.0100451009348,-0.0204779095948,0.113986693323,-0.15685069561,9.73348712921,-0.0186823692849,-0.0111774801205,0.540410766333,1486,1486,1528,1522,16.204000473,526,0,0
4.10247397423,0.0223258435726,0.0103317191824,-0.0188268925995,0.132648065686,-0.153460353613,9.79895496368,-0.0186829487283,-0.0112848028777,0.540441592079,1485,1487,1528,1522,16.204000473,523,0,0
4.20103192329,0.0214050523937,0.0109482593834,-0.0166790448129,0.126897707582,-0.15876185894,9.76629066467,-0.0186757067042,-0.0113094767595,0.540366286679,1486,1487,1528,1522,16.202999115,524,0,0
4.29926991463,0.0209664180875,0.0111221270636,-0.0149692837149,0.131209135056,-0.178862601519,9.78629112244,-0.018653635898,-0.0113440865606,0.540367601433,1486,1486,1529,1522,16.202999115,523,0,0
4.4015519619,0.0204537585378,0.0105911679566,-0.0141612431034,0.124516606331,-0.174556881189,9.76959133148,-0.0186278062658,-0.0113394895126,0.540339189536,1486,1487,1528,1520,16.202999115,524,0,0
4.49975395203,0.0201429706067,0.010390962474,-0.0133386487141,0.107172288001,-0.176613762975,9.76903247833,-0.0185250261766,-0.0114175143692,0.540236690659,1486,1487,1528,1522,16.2099990845,522,0,0
4.60226893425,0.0193247161806,0.00901573244482,-0.0124691883102,0.127881094813,-0.162095353007,9.77287864685,-0.018471458085,-0.011406403146,0.540258623557,1486,1486,1528,1520,16.2099990845,522,0,0
4.70088386536,0.0190784502774,0.00884613953531,-0.0121478140354,0.10969799757,-0.164485827088,9.80956363678,-0.0184455783761,-0.0114561624169,0.540221840824,1486,1487,1528,1522,16.2059993744,522,0,0
4.80302381516,0.0185241755098,0.00816018786281,-0.0127151375636,0.12977437675,-0.157322198153,9.7810125351,-0.0184398872347,-0.0114702917151,0.540159581542,1486,1487,1529,1522,16.2059993744,524,0,0
4.9012029171,0.0180168990046,0.00826654024422,-0.0122565943748,0.101328000426,-0.173351794481,9.81009960175,-0.0183935710198,-0.0114948901645,0.540108570216,1486,1487,1528,1522,16.2059993744,523,0,0
5.00390291214,0.0174229536206,0.00792730972171,-0.013049852103,0.119754038751,-0.176444381475,9.79093742371,-0.0184120480257,-0.0114973933143,0.54009191749,1486,1487,1528,1522,16.1979999542,525,0,0
5.10207796097,0.0170952789485,0.00763711519539,-0.014006074518,0.113522566855,-0.151573598385,9.81572914124,-0.0184261831078,-0.0115126973104,0.540105744504,1486,1486,1529,1520,16.1979999542,522,0,0
5.20425200462,0.0165369771421,0.00723509676754,-0.0133351786062,0.105369567871,-0.171693474054,9.79576587677,-0.0185026186341,-0.0115143152007,0.540234191153,1486,1489,1528,1522,16.1979999542,524,0,0
5.30261588097,0.0160379335284,0.00751653127372,-0.0132410023361,0.124032974243,-0.162113413215,9.78102493286,-0.0185380482755,-0.0115264116678,0.54022182923,1485,1487,1528,1522,16.1949996948,521,0,0
5.40117383003,0.0153557593003,0.00804514996707,-0.0136063685641,0.125454097986,-0.154475182295,9.81145572662,-0.0185252508933,-0.0115411853458,0.540198039927,1486,1489,1528,1522,16.1949996948,524,0,0
5.50336194038,0.0149421682581,0.00799706485122,-0.0133826062083,0.119729422033,-0.176950588822,9.77248382568,-0.018571681181,-0.011543038799,0.540251789881,1486,1487,1528,1522,16.1900005341,527,0,0
5.60163879395,0.0147350011393,0.0090020429343,-0.0132297091186,0.136969417334,-0.135289236903,9.7653093338,-0.0186328811931,-0.0115385305865,0.540215069441,1486,1489,1528,1522,16.1900005341,527,0,0
5.704007864,0.0141181796789,0.0107378792018,-0.0134710846469,0.124987669289,-0.173123821616,9.81576061249,-0.0185688725601,-0.0115685551917,0.540225195335,1486,1486,1528,1520,16.1900005341,523,0,0
5.80281686783,0.0138528738171,0.0129533130676,-0.0155600300059,0.111130952835,-0.17455150187,9.80145645142,-0.018585574757,-0.0115601348285,0.540165798877,1486,1486,1529,1520,16.1940002441,519,0,0
5.90514993668,0.0138121694326,0.01416962035,-0.0160873997957,0.132634922862,-0.149191632867,9.7648639679,-0.0186590105039,-0.0115125181095,0.540206275316,1486,1487,1528,1522,16.1940002441,521,0,0
6.00302791595,0.0138790346682,0.0151640307158,-0.0168409515172,0.118745177984,-0.169800743461,9.76823425293,-0.0187257087492,-0.0115080348003,0.540224578441,1486,1486,1529,1520,16.1940002441,524,0,0
6.10552287102,0.0132425660267,0.0180880930275,-0.0181063562632,0.0926854163408,-0.174861311913,9.81066226959,-0.0187265793541,-0.0114456561266,0.540246814424,1485,1487,1528,1522,16.1900005341,524,0,0
6.20385885239,0.0121332276613,0.0182960499078,-0.0176436174661,0.130243659019,-0.180799037218,9.74957466125,-0.0187065227081,-0.0114457582079,0.540218256795,1486,1487,1529,1520,16.1930007935,524,0,0
6.30617690086,0.0115348165855,0.0194417014718,-0.0183717049658,0.12307407707,-0.179344415665,9.8005437851,-0.0187375317563,-0.0114686623933,0.540215530415,1485,1489,1528,1522,16.1930007935,526,0,0
6.40452885628,0.0110162626952,0.0204386841506,-0.0191310830414,0.11590629071,-0.146795779467,9.77148246765,-0.0187543729375,-0.0114692334042,0.540202318116,1486,1486,1529,1520,16.1930007935,524,0,0
6.50688886642,0.010816433467,0.0214269328862,-0.0191370919347,0.12688203156,-0.158301353455,9.77575206757,-0.0187488630211,-0.0114543884242,0.540310705087,1485,1489,1528,1522,16.1930007935,526,0,0
6.60518193245,0.0108286272734,0.0226255394518,-0.0199027955532,0.12449927628,-0.171685934067,9.76019954681,-0.0186638997704,-0.0115001469177,0.540350163111,1486,1487,1528,1522,16.1930007935,522,0,0
6.70348882675,0.010838358663,0.0233493838459,-0.0196532849222,0.131676614285,-0.157335951924,9.77912330627,-0.0186330822661,-0.0115274571548,0.540299333978,1486,1489,1528,1522,16.1909999847,524,0,0
6.80595493317,0.0100148562342,0.0239329207689,-0.0207773372531,0.101054437459,-0.162129566073,9.75724411011,-0.0186457078045,-0.0115331688254,0.54027969087,1486,1486,1528,1520,16.1909999847,526,0,0
6.90411281586,0.00906975194812,0.0239585544914,-0.0184835195541,0.11591847986,-0.141033887863,9.79862976074,-0.0186731151809,-0.0115952147355,0.54033228202,1486,1487,1528,1520,16.1909999847,523,0,0
7.00662779808,0.00907514523715,0.0239376518875,-0.0192358810455,0.124983847141,-0.152543544769,9.80814838409,-0.0186557714036,-0.0116367331258,0.540316820453,1486,1487,1528,1522,16.1900005341,523,0,0
7.10512685776,0.00841873977333,0.0239417143166,-0.0195929612964,0.120696566999,-0.152058407664,9.79140949249,-0.0186540788674,-0.0116724305983,0.540330696491,1486,1486,1529,1520,16.1900005341,522,0,0
7.20741987228,0.00796958431602,0.0236798617989,-0.0197240523994,0.109194748104,-0.17264713347,9.78013896942,-0.0186464154708,-0.0117060228208,0.540289849998,1486,1486,1529,1520,16.1900005341,521,0,0
7.30575489998,0.00729073956609,0.0233645197004,-0.0198500100523,0.112555906177,-0.181257724762,9.78342533112,-0.0186318035315,-0.0117494684827,0.540253690615,1486,1486,1529,1520,16.1909999847,524,0,0
7.40785980225,0.00741521641612,0.0222275238484,-0.0210458356887,0.134948045015,-0.157908409834,9.77812576294,-0.0186462978578,-0.0117231891338,0.540277092628,1485,1489,1528,1522,16.1909999847,525,0,0
7.5062057972,0.00770284514874,0.0224667303264,-0.0207726527005,0.125945970416,-0.164503782988,9.76821136475,-0.018648431405,-0.0116797557105,0.540323353865,1486,1487,1528,1522,16.188999176,526,0,0
7.60850095749,0.00812701042742,0.0235436074436,-0.0209334213287,0.125000596046,-0.140549302101,9.822930336,-0.0186694832784,-0.0116646772966,0.540348267132,1486,1489,1528,1522,16.188999176,520,0,0
7.70694589615,0.00862456019968,0.0259050633758,-0.0215434413403,0.131689667702,-0.161633402109,9.74043560028,-0.0186485251834,-0.0116040085451,0.540276613069,1486,1486,1528,1520,16.188999176,521,0,0
7.80558490753,0.00775023363531,0.0269499626011,-0.0215463954955,0.116845443845,-0.172176852822,9.76488113403,-0.0186756953112,-0.0115774713251,0.540301122125,1486,1487,1528,1522,16.1919994354,524,0,0
7.90756583214,0.00759392650798,0.0274480674416,-0.0216793753207,0.129295632243,-0.149663150311,9.76821041107,-0.0187070044551,-0.0116018754091,0.540307374752,1486,1487,1528,1522,16.1919994354,523,0,0
8.00615000725,0.00723631307483,0.0277684722096,-0.020783148706,0.109223328531,-0.163529634476,9.80101203918,-0.0186684438331,-0.0116226312366,0.540304475116,1486,1487,1528,1522,16.1919994354,524,0,0
8.10852885246,0.00625068927184,0.0269976072013,-0.0184473413974,0.107277438045,-0.165964275599,9.77855014801,-0.0187317267974,-0.0116727654137,0.540306180479,1486,1487,1528,1522,16.1879997253,526,0,0
8.20655179024,0.00610452657565,0.0255782213062,-0.0171508956701,0.117822520435,-0.150618955493,9.74678421021,-0.0187315971924,-0.0116417636783,0.540311663114,1486,1487,1528,1522,16.1879997253,524,0,0
8.30919790268,0.00592405535281,0.0252926442772,-0.0165509618819,0.102520041168,-0.154923841357,9.77009391785,-0.0187322381528,-0.0116675980628,0.540330319351,1485,1487,1528,1522,16.1879997253,523,0,0
8.4072868824,0.00621953094378,0.0246223658323,-0.0148555766791,0.126900091767,-0.163073658943,9.76010608673,-0.018707499572,-0.0116344417509,0.540354771589,1486,1487,1528,1522,16.1879997253,522,0,0
8.50989985466,0.00667043728754,0.0249178521335,-0.0149771943688,0.123538568616,-0.176006123424,9.76491546631,-0.0186663782897,-0.0116269918774,0.540330831618,1485,1487,1528,1522,16.1900005341,526,0,0
8.60815501213,0.00613982463256,0.0249015446752,-0.0155578814447,0.114927910268,-0.167393133044,9.78530788422,-0.0186522366574,-0.0116612517223,0.540361123825,1486,1487,1528,1522,16.1900005341,524,0,0
8.71061491966,0.00612425571308,0.0252227373421,-0.0155692612752,0.119739465415,-0.158278986812,9.81618976593,-0.0187170080409,-0.0116409914854,0.540394651441,1486,1487,1528,1522,16.1909999847,525,0,0
8.80881500244,0.00553030520678,0.0257027894258,-0.0155921252444,0.137889578938,-0.155908644199,9.76435089111,-0.0187523865952,-0.0116072092366,0.540519019795,1485,1487,1528,1522,16.1909999847,524,0,0
8.90719985962,0.0062237707898,0.0271968003362,-0.0159848425537,0.134092360735,-0.170234322548,9.75248813629,-0.0188968821404,-0.0115464126228,0.540518651616,1486,1487,1528,1522,16.1909999847,526,0,0
9.00975179672,0.00605795672163,0.0272358451039,-0.0167611669749,0.140755608678,-0.170268788934,9.76583099365,-0.0188368176508,-0.0115587067764,0.540538255344,1485,1487,1528,1522,16.2010002136,523,0,0
9.10762286186,0.00662043178454,0.0282873194665,-0.0171780344099,0.130728602409,-0.133867278695,9.79340839386,-0.0188905765915,-0.0115601806692,0.540491840001,1485,1487,1528,1522,16.2010002136,526,0,0
9.21042084694,0.00638839509338,0.028407054022,-0.0168367214501,0.129296720028,-0.166423305869,9.79521369934,-0.0188983160622,-0.0115473226779,0.540483749094,1486,1487,1528,1522,16.2010002136,524,0,0
9.30894184113,0.00657343165949,0.0295746270567,-0.0166775267571,0.115408174694,-0.182230427861,9.79530715942,-0.0188993143051,-0.0115215500204,0.540415356057,1486,1487,1528,1522,16.202999115,525,0,0
9.41075897217,0.00641545373946,0.0298314988613,-0.0143052209169,0.124976083636,-0.147281646729,9.76865291595,-0.0189625158071,-0.0114920805438,0.540489563499,1486,1487,1528,1522,16.202999115,524,0,0
9.50902485847,0.00635965634137,0.0310029238462,-0.0133233284578,0.110645286739,-0.167375683784,9.79053783417,-0.0189936779436,-0.0115260232765,0.540584482438,1486,1487,1528,1522,16.2000007629,524,0,0
9.61178779602,0.00672177132219,0.0314203985035,-0.0134616335854,0.124520100653,-0.162583351135,9.80729103088,-0.0190111470697,-0.0115013758377,0.540596090081,1486,1486,1528,1520,16.2000007629,528,0,0
9.70990896225,0.00668051326647,0.0318403355777,-0.013440258801,0.129711225629,-0.153120741248,9.77589035034,-0.0189845240057,-0.0115163168437,0.540643226901,1486,1487,1528,1522,16.2000007629,524,0,0
9.81246685982,0.00731552811339,0.0321379490197,-0.0140459360555,0.110162854195,-0.160677701235,9.79384613037,-0.0190130647678,-0.0114861873375,0.540680147151,1486,1489,1528,1522,16.2080001831,526,0,0
9.91036987305,0.00701877009124,0.0325220376253,-0.0155732352287,0.117533549666,-0.161525711417,9.79199790955,-0.0190088544748,-0.0114558777205,0.540721067319,1486,1486,1528,1520,16.2080001831,517,0,0
10.01303792,0.00679000839591,0.032540332526,-0.0166394691914,0.134557962418,-0.164502218366,9.77579879761,-0.0190246616759,-0.0114798342688,0.5407595899,1485,1487,1528,1522,16.2070007324,525,0,0
10.1111459732,0.00638653757051,0.0333416312933,-0.0177479814738,0.114467352629,-0.159721523523,9.77670764923,-0.0189633606087,-0.011530258323,0.540780926952,1486,1487,1528,1522,16.2070007324,524,0,0
10.2095317841,0.00680407648906,0.0332280248404,-0.0191694293171,0.118283189833,-0.167868971825,9.76013278961,-0.0189182028687,-0.0115346533338,0.540758207333,1486,1487,1528,1522,16.2070007324,525,0,0
10.3119719028,0.00742722209543,0.0333469994366,-0.0200418066233,0.12211638689,-0.168357849121,9.798204422,-0.0188831153515,-0.0115249977029,0.540781520605,1486,1487,1528,1522,16.2049999237,523,0,0
10.4106500149,0.00747079309076,0.0323447957635,-0.0210210774094,0.111120186746,-0.16163341701,9.78245925903,-0.018887152265,-0.0115005710859,0.540868556332,1486,1489,1528,1522,16.2049999237,525,0,0
10.5128498077,0.00730654923245,0.0316777676344,-0.0217160638422,0.101066872478,-0.172655180097,9.78959941864,-0.0189054845216,-0.0114578540566,0.540878083753,1486,1487,1528,1522,16.2019996643,522,0,0
10.6112129688,0.00720990961418,0.0300527103245,-0.0221300795674,0.132645919919,-0.160203099251,9.80188846588,-0.0188557054245,-0.0115188020492,0.540835090256,1486,1486,1529,1520,16.2019996643,523,0,0
10.7137708664,0.00730389170349,0.029140945524,-0.0223666038364,0.099646948278,-0.193700358272,9.81524562836,-0.0188365765197,-0.0115132869523,0.54082030343,1486,1486,1528,1520,16.2019996643,521,0,0
10.8114089966,0.00698373327032,0.0275058709085,-0.0231092534959,0.0906247347593,-0.174010589719,9.79585266113,-0.0187523235558,-0.0115608244045,0.54084543693,1486,1487,1528,1522,16.2019996643,526,0,0
10.9139328003,0.00732609815896,0.026282498613,-0.0229313056916,0.124037146568,-0.171683654189,9.75156974792,-0.0187808864103,-0.0115276979805,0.540927389703,1485,1487,1528,1522,16.2019996643,523,0,0
11.0128908157,0.00806887540966,0.0254750289023,-0.0238163545728,0.129774138331,-0.16402746737,9.80002880096,-0.0186833597316,-0.0115700239004,0.540846060848,1485,1487,1528,1522,16.1989994049,528,0,0
11.1145188808,0.00899801403284,0.0251597780734,-0.0235592778772,0.116845436394,-0.16403645277,9.77628898621,-0.0186085804205,-0.0115830134972,0.540873331575,1486,1487,1528,1522,16.1989994049,519,0,0
11.2130010128,0.0103510320187,0.0244961548597,-0.0242002718151,0.104426465929,-0.169290676713,9.76153564453,-0.0185540664721,-0.0116066341353,0.54085408447,1485,1487,1528,1522,16.1989994049,525,0,0
11.3116469383,0.0109918648377,0.0236012153327,-0.0255901440978,0.128797546029,-0.163088873029,9.77958202362,-0.0185119100669,-0.011568709451,0.540846418137,1486,1487,1528,1522,16.1970005035,521,0,0
11.4135718346,0.0111468015239,0.0219316370785,-0.0250821895897,0.125456362963,-0.171226397157,9.75681018829,-0.0184870755636,-0.011604097483,0.540769294984,1486,1487,1528,1522,16.1970005035,522,0,0
11.5119378567,0.0115448823199,0.0213204622269,-0.0252901632339,0.129759192467,-0.169782906771,9.74636745453,-0.018437738128,-0.011671488077,0.540708040367,1486,1486,1528,1520,16.1970005035,524,0,0
11.6148588657,0.0123000983149,0.0210336726159,-0.0254237297922,0.113035112619,-0.176471397281,9.78055477142,-0.018429268853,-0.0116516997845,0.540742195462,1485,1487,1528,1522,16.1970005035,524,0,0
11.7125809193,0.0125619890168,0.0210218913853,-0.0255756340921,0.11781989783,-0.155408024788,9.81667423248,-0.0184243416574,-0.0116503708454,0.540726620566,1486,1489,1528,1522,16.1970005035,525,0,0
11.8153758049,0.0133288828656,0.0204372256994,-0.0241236574948,0.109184458852,-0.158304095268,9.77961444855,-0.0184108460178,-0.0116426886462,0.54076598877,1486,1487,1528,1522,16.1930007935,523,0,0
11.9134299755,0.0132695920765,0.0189588405192,-0.0236281007528,0.126434385777,-0.170722097158,9.78670597076,-0.0182887967782,-0.0117265999336,0.540718976885,1486,1489,1528,1522,16.1930007935,523,0,0
12.0160708427,0.0131253274158,0.0174950342625,-0.0242789015174,0.113970562816,-0.159740790725,9.76057434082,-0.0182492554216,-0.0117264112675,0.540679488098,1486,1486,1528,1522,16.202999115,531,0,0
12.1141009331,0.012934374623,0.0168638676405,-0.0245773158967,0.123087584972,-0.158273354173,9.75915527344,-0.0182358466506,-0.0117589411569,0.540696024987,1486,1489,1528,1522,16.202999115,521,0,0
12.2167978287,0.0128602581099,0.0158766433597,-0.0234976131469,0.120211735368,-0.17503079772,9.82144069672,-0.0182145814462,-0.0117847589306,0.540718085798,1486,1487,1528,1522,16.202999115,528,0,0
12.3147978783,0.0125506762415,0.0152784744278,-0.0223061162978,0.113513112068,-0.161630421877,9.80766391754,-0.0180597250895,-0.0117343507278,0.540689680758,1485,1487,1528,1522,16.2010002136,523,0,0
12.4131639004,0.0121772997081,0.0142380287871,-0.0209679398686,0.114481694996,-0.165932074189,9.77013301849,-0.0179791461506,-0.0117552294784,0.540742552187,1486,1487,1528,1522,16.2010002136,527,0,0
12.5153739452,0.0122018912807,0.013825061731,-0.0205347519368,0.125950753689,-0.15396656096,9.78767871857,-0.0179687759552,-0.0117627328172,0.540787089339,1485,1487,1528,1522,16.2010002136,526,0,0
12.6138598919,0.0125768110156,0.0122275855392,-0.0198418255895,0.11541248858,-0.161647170782,9.78814888,-0.0178740796885,-0.0117807129901,0.540769530465,1486,1487,1529,1520,16.1979999542,524,0,0
12.7161347866,0.0126069420949,0.0113790621981,-0.0194272827357,0.124507032335,-0.153023555875,9.79004955292,-0.0178500844462,-0.0117766676226,0.540747319143,1486,1489,1528,1522,16.1979999542,524,0,0
12.8147399426,0.0126977851614,0.00998416729271,-0.0188709199429,0.11686398834,-0.165458768606,9.82948970795,-0.0177540358754,-0.0117848949689,0.540685790096,1485,1487,1528,1522,16.2049999237,525,0,0
12.9168009758,0.0133966952562,0.00930529367179,-0.0177883263677,0.119741253555,-0.171198263764,9.80858230591,-0.0177697204191,-0.0117845505519,0.540724695142,1486,1486,1529,1522,16.2049999237,524,0,0
13.0151979923,0.0133060039952,0.00791678763926,-0.0174598358572,0.124508105218,-0.181737616658,9.77345561981,-0.017762883649,-0.0118374680936,0.540665682778,1486,1487,1528,1522,16.2049999237,521,0,0
13.1174678802,0.013614423573,0.00703267846256,-0.0161663573235,0.120687127113,-0.152059003711,9.77627754211,-0.0178281420074,-0.0118391999023,0.540664518465,1486,1486,1529,1522,16.2019996643,526,0,0
13.2161037922,0.0144362188876,0.00550633436069,-0.0146931661293,0.14076757431,-0.152540564537,9.76107215881,-0.017752484014,-0.0118422588568,0.540616990986,1486,1487,1528,1522,16.2019996643,524,0,0
13.3182737827,0.0149705344811,0.00528573570773,-0.0135356402025,0.108618609607,-0.174620062113,9.78941822052,-0.0177899432732,-0.0118776648719,0.540608791298,1486,1489,1528,1522,16.1989994049,525,0,0
13.416426897,0.0156079372391,0.00420526042581,-0.0133753186092,0.11732430011,-0.171219810843,9.76963329315,-0.0177720979936,-0.0118973252534,0.540572875882,1486,1487,1528,1522,16.1989994049,522,0,0
13.5192818642,0.0162472333759,0.00332410703413,-0.0127572845668,0.121662020683,-0.174056902528,9.78340530396,-0.0177356861812,-0.0119288544256,0.540565529677,1486,1487,1528,1522,16.1930007935,524,0,0
13.6172688007,0.0176917165518,0.00171803613193,-0.0118211666122,0.11351120472,-0.173126682639,9.78716945648,-0.0177282270702,-0.0118932562308,0.54063298894,1485,1487,1528,1522,16.1930007935,522,0,0
13.7156407833,0.0182173661888,0.00111309881322,-0.0121298991144,0.106811739504,-0.167380094528,9.80244350433,-0.0177286753469,-0.0118163863199,0.540623998551,1485,1487,1528,1522,16.1930007935,524,0,0
13.8178679943,0.0186326056719,0.000683566904627,-0.0115038137883,0.127372354269,-0.157338365912,9.76629066467,-0.0177361466718,-0.0117786353684,0.540621000668,1486,1486,1528,1520,16.1940002441,523,0,0
13.9163229465,0.0191648770124,0.00081406760728,-0.0111300665885,0.131199553609,-0.154934734106,9.78011226654,-0.0177602969106,-0.0118235125084,0.540591511088,1486,1487,1528,1522,16.1940002441,520,0,0
14.0185828209,0.0201851408929,0.000206285360036,-0.0102600287646,0.132163226604,-0.161154717207,9.76296710968,-0.0177530273975,-0.0118616749044,0.540577175383,1486,1486,1528,1520,16.1940002441,524,0,0
14.1173388958,0.0210730675608,-0.00105785857886,-0.00882015842944,0.106298319995,-0.181762933731,9.78585147858,-0.0177825441014,-0.0118644738998,0.540656362265,1486,1487,1528,1522,16.1930007935,526,0,0
14.2194378376,0.0212952382863,-0.00267926347442,-0.00719333905727,0.112076684833,-0.159718647599,9.77818107605,-0.0178219589799,-0.0118944284345,0.540730401239,1485,1487,1528,1522,16.1930007935,524,0,0
14.3176219463,0.021619938314,-0.00366358994506,-0.00638691755012,0.118282593787,-0.154462635517,9.76148414612,-0.017754680586,-0.0119554246052,0.540699851599,1486,1486,1528,1520,16.1970005035,528,0,0
14.4199728966,0.0216134302318,-0.00434206752107,-0.005541077815,0.117359921336,-0.183628469706,9.80342006683,-0.0177529258074,-0.0119672116339,0.540712862448,1486,1486,1529,1522,16.1970005035,524,0,0
14.5183968544,0.0218771360815,-0.00442993175238,-0.00604097964242,0.109697990119,-0.173111945391,9.78202342987,-0.0178109202992,-0.0119788994469,0.540727976399,1486,1486,1528,1520,16.1930007935,523,0,0
14.6205809116,0.0222935285419,-0.00481554446742,-0.00704739568755,0.123542636633,-0.171221017838,9.76202392578,-0.0178283544553,-0.0119847847705,0.540709436018,1485,1486,1528,1522,16.1930007935,525,0,0
14.7190527916,0.0224062334746,-0.00509217008948,-0.00844834465533,0.0982074066997,-0.169292479753,9.77390193939,-0.0178316318158,-0.0120100975269,0.540689054931,1486,1487,1528,1522,16.1930007935,518,0,0
14.8181200027,0.022372957319,-0.0062719960697,-0.00905517954379,0.126909047365,-0.157797306776,9.80434703827,-0.0178067784937,-0.0120473647197,0.540679107328,1485,1487,1528,1522,16.1900005341,527,0,0
14.9197728634,0.0222635772079,-0.00635816110298,-0.00920414086431,0.126421228051,-0.145833477378,9.82052230835,-0.017825515582,-0.0120110147399,0.540640886015,1486,1489,1528,1522,16.1900005341,524,0,0
15.0183558464,0.0218745451421,-0.00609933119267,-0.00967318285257,0.117806859314,-0.162604689598,9.81439590454,-0.0178446425052,-0.0120150669949,0.540673909713,1486,1486,1529,1520,16.1900005341,522,0,0
15.1204698086,0.021515738219,-0.00520026264712,-0.00862788408995,0.131215721369,-0.170711666346,9.82959651947,-0.017769150791,-0.011994685792,0.540705020225,1486,1487,1528,1522,16.1909999847,526,0,0
15.218859911,0.0221004988998,-0.00436301389709,-0.00757933827117,0.12405205518,-0.162570014596,9.81050395966,-0.0178268373905,-0.0119501569722,0.540746077256,1486,1487,1528,1522,16.1909999847,524,0,0
15.3211259842,0.0220976490527,-0.0037671267055,-0.00699878903106,0.121166817844,-0.160183444619,9.80449295044,-0.0178894326944,-0.0119319179536,0.540778289724,1486,1487,1528,1522,16.1930007935,527,0,0
15.4195699692,0.0222661104053,-0.00326876016334,-0.00673966482282,0.127378940582,-0.169294893742,9.78720569611,-0.017887229558,-0.0119323123502,0.540774279909,1486,1487,1528,1522,16.1930007935,524,0,0
15.5220618248,0.0227618124336,-0.00183001195546,-0.00574633060023,0.11111780256,-0.175040394068,9.76537322998,-0.0179349095452,-0.0118911086389,0.540784162594,1486,1486,1529,1520,16.1930007935,527,0,0
15.6202089787,0.022408735007,-0.0015121466713,-0.00540312798694,0.141729816794,-0.162108376622,9.76388645172,-0.0179520726722,-0.0119222785621,0.540853608803,1486,1487,1528,1522,16.1949996948,523,0,0
15.7225217819,0.022306330502,-0.000971111294348,-0.00494215358049,0.115415848792,-0.186058536172,9.77724266052,-0.0179229310959,-0.0119663935702,0.540827672048,1486,1487,1528,1522,16.1949996948,525,0,0
15.8208007812,0.0215415228158,-0.00157738581765,-0.00451803719625,0.14698843658,-0.159241750836,9.7943315506,-0.0179823057032,-0.0119618006553,0.540832342516,1486,1487,1528,1522,16.2000007629,524,0,0
15.9193189144,0.0215840190649,-0.00166578451172,-0.00378709170036,0.114461384714,-0.171716868877,9.81187152863,-0.0179436113524,-0.0120088615828,0.540871829615,1486,1487,1528,1522,16.2000007629,524,0,0
16.0220439434,0.021590994671,-0.00188255088869,-0.00432710954919,0.110179334879,-0.15348944068,9.79808044434,-0.017967359144,-0.0120346322016,0.540899465225,1485,1487,1528,1522,16.2000007629,524,0,0
16.1199109554,0.0214983634651,-0.00263345171697,-0.00307329138741,0.108334682882,-0.173409596086,9.78134059906,-0.0179350318465,-0.0120415871015,0.540949046307,1486,1487,1528,1522,16.2010002136,526,0,0
16.2223129272,0.0214246660471,-0.00297139585018,-0.0021164487116,0.118294201791,-0.175991788507,9.77631950378,-0.0179757816537,-0.0120145670168,0.540976154665,1485,1487,1528,1522,16.2010002136,526,0,0
16.3205308914,0.0213401354849,-0.0028860559687,-0.000480498449178,0.130676537752,-0.157336458564,9.77688598633,-0.0179355632169,-0.0120310162887,0.540962670102,1486,1487,1528,1522,16.2010002136,524,0,0
16.4231557846,0.0208188146353,-0.00344326673076,0.000474984466564,0.122113995254,-0.163071289659,9.76443958282,-0.0179647699033,-0.0120414355827,0.540985726958,1486,1489,1528,1522,16.1989994049,525,0,0
16.5211498737,0.0208288431168,-0.00394807336852,0.000594101147726,0.10728880018,-0.165949046612,9.75777339935,-0.0180377079763,-0.0120034170054,0.541059257849,1486,1487,1528,1522,16.1989994049,526,0,0
16.6235089302,0.0213692784309,-0.00398985063657,0.000927067361772,0.122117578983,-0.160667061806,9.78346920013,-0.0180100521607,-0.0120142141118,0.541079379934,1485,1487,1528,1522,16.2059993744,528,0,0
16.7219560146,0.021065087989,-0.00461902236566,0.0010708727641,0.119725838304,-0.159720569849,9.7748632431,-0.0179862447242,-0.011958695077,0.541135030015,1485,1487,1528,1522,16.2059993744,523,0,0
16.8241639137,0.0203447211534,-0.0046570408158,0.00173042539973,0.124034166336,-0.160200923681,9.80571651459,-0.0179868725521,-0.0119536291422,0.541124305044,1486,1487,1528,1522,16.2059993744,527,0,0
16.9226939678,0.0199935771525,-0.00432851864025,0.000434713205323,0.119728118181,-0.158762469888,9.77483177185,-0.0179774501658,-0.0119661320408,0.54113136217,1486,1487,1528,1522,16.1930007935,527,0,0
17.0250627995,0.0201965626329,-0.00379906850867,-0.00036492315121,0.124053299427,-0.162090584636,9.79138183594,-0.0178853731972,-0.0120269821087,0.54114146107,1486,1487,1528,1522,16.1930007935,524,0,0
17.1236789227,0.0201378334314,-0.00328227039427,-0.000272738747299,0.136474907398,-0.146316021681,9.76918506622,-0.0178766482913,-0.0119726010411,0.541160010187,1486,1486,1528,1520,16.1930007935,521,0,0
17.2217907906,0.0204668100923,-0.00233069830574,-0.000791544618551,0.133122503757,-0.15349277854,9.76106071472,-0.01791349324,-0.0119303750256,0.54115957949,1486,1487,1528,1522,16.1900005341,525,0,0
17.3241419792,0.0200918447226,-0.0015598757891,-0.000608783098869,0.108251869678,-0.149663135409,9.81812572479,-0.017888432229,-0.0119276249856,0.541200423239,1486,1487,1528,1522,16.1900005341,522,0,0
17.4224028587,0.020372999832,-0.000141544413054,-0.000803613162134,0.100539267063,-0.16600766778,9.77481174469,-0.0178406476066,-0.0119257254262,0.541181237011,1486,1487,1528,1520,16.188999176,526,0,0
17.5245599747,0.0203655380756,0.000923914893065,-9.18043224374e-06,0.117353223264,-0.161141932011,9.76296329498,-0.0178855802799,-0.0118483391372,0.5411982759,1486,1486,1528,1520,16.188999176,522,0,0
17.6233539581,0.0201770905405,0.0040080328472,-0.000907289329916,0.134061872959,-0.186062261462,9.80529880524,-0.0179645970454,-0.011820496742,0.541253556258,1486,1489,1528,1522,16.1879997253,525,0,0
17.7254269123,0.0205141622573,0.00476487632841,-0.00210462347604,0.134551852942,-0.16737985611,9.75441551208,-0.0180067058317,-0.0118332465535,0.541179580207,1486,1486,1529,1520,16.1879997253,525,0,0
17.8240017891,0.0200800225139,0.00640483759344,-0.00464545190334,0.106342688203,-0.179338172078,9.78335380554,-0.0180733932982,-0.0117939853387,0.541178970135,1486,1487,1528,1522,16.1879997253,522,0,0
17.925978899,0.0208433158696,0.00892902910709,-0.00624516094103,0.123544678092,-0.161636993289,9.771068573,-0.0181129379452,-0.0117317451777,0.5411854127,1485,1487,1528,1522,16.1870002747,522,0,0
18.024379015,0.0207258816808,0.0106914844364,-0.00733130285516,0.128332436085,-0.152540072799,9.75961971283,-0.018179786371,-0.0117027796787,0.541226362852,1485,1487,1528,1522,16.1870002747,523,0,0
18.12972188,0.0206522438675,0.0118139041588,-0.00677294656634,0.126485794783,-0.15248323977,9.81858253479,-0.0181433370264,-0.0117361459147,0.541168856009,1486,1487,1528,1522,16.1870002747,518,0,0
18.2252969742,0.0200578253716,0.0140195395797,-0.00609280541539,0.15033018589,-0.168818563223,9.78721904755,-0.0181005471636,-0.0117321199398,0.541114031762,1486,1487,1528,1522,16.1879997253,523,0,0
18.3234698772,0.0202876590192,0.0148884728551,-0.00593602936715,0.149852663279,-0.166422113776,9.82665348053,-0.0180925985145,-0.0117008372209,0.541056911401,1486,1487,1528,1522,16.1879997253,523,0,0
18.4261608124,0.0204864554107,0.0152866691351,-0.00527802156284,0.116873547435,-0.153967306018,9.8323507309,-0.0180942377372,-0.0117185815908,0.541079824039,1486,1487,1528,1522,16.1879997253,525,0,0
18.5242879391,0.0207484513521,0.0169307272881,-0.00505104335025,0.106339104474,-0.179823338985,9.7981595993,-0.0180376743113,-0.0118092098564,0.541030337382,1486,1487,1528,1522,16.186000824,523,0,0
18.6264169216,0.0202360842377,0.0175620242953,-0.00395535118878,0.13074940443,-0.160656288266,9.83760356903,-0.0181469462133,-0.0117798432591,0.541081284023,1486,1489,1528,1522,16.186000824,524,0,0
18.7251868248,0.0197964701802,0.018403109163,-0.00277485861443,0.13072489202,-0.16403105855,9.78197383881,-0.0180935758763,-0.0118091476205,0.541067311852,1486,1487,1528,1522,16.186000824,522,0,0
18.8271608353,0.0192471966147,0.0194128807634,-0.00272347102873,0.0991547033191,-0.156853675842,9.78009033203,-0.0180995453278,-0.0117929817045,0.541152618317,1486,1487,1529,1520,16.186000824,522,0,0
18.9257957935,0.0186161994934,0.0204573553056,-0.00226821308024,0.120197400451,-0.153502836823,9.8219909668,-0.0181019326833,-0.0117228122622,0.54117065626,1486,1487,1528,1522,16.186000824,527,0,0
19.0279259682,0.0176699720323,0.0217476040125,-0.00248890882358,0.129763737321,-0.156854897738,9.76297283173,-0.0181191065742,-0.0117127731968,0.541160522095,1485,1487,1528,1522,16.1870002747,527,0,0
19.126352787,0.017556803301,0.0224773325026,-0.00270763388835,0.118831880391,-0.179300367832,9.78254890442,-0.0181121632564,-0.0117613919676,0.541093738657,1486,1487,1528,1522,16.1870002747,523,0,0
19.2283828259,0.0174488797784,0.0224706623703,-0.00320422742516,0.106812216341,-0.166422128677,9.76440143585,-0.0180670403712,-0.0117750234436,0.541123613043,1486,1487,1528,1522,16.1870002747,524,0,0
19.3268349171,0.017162239179,0.0229789949954,-0.00353160873055,0.115920037031,-0.171668574214,9.81526660919,-0.0180814149084,-0.0117780691396,0.541119725006,1486,1487,1528,1522,16.1870002747,524,0,0
19.4295098782,0.0169708114117,0.0229941010475,-0.00331124966033,0.121638737619,-0.169772714376,9.82101345062,-0.0180591665306,-0.0117339057485,0.541143666093,1486,1486,1528,1520,16.1870002747,525,0,0
19.5279729366,0.0167505759746,0.0231550596654,-0.00297109573148,0.118769817054,-0.154934719205,9.77772140503,-0.018067959296,-0.0117497938138,0.541158057199,1486,1487,1528,1522,16.1870002747,523,0,0
19.6259868145,0.0165371987969,0.0233225692064,-0.0021133525297,0.110419161618,-0.162346556783,9.74493312836,-0.0180589574319,-0.0117650454837,0.541154446276,1486,1489,1528,1522,16.1870002747,527,0,0
19.7282989025,0.0165728460997,0.023225678131,-0.00172378786374,0.127378925681,-0.135306581855,9.78530406952,-0.0180571474236,-0.0117528825825,0.541156047398,1486,1487,1528,1522,16.1870002747,523,0,0
19.826695919,0.0153437759727,0.0239073280245,-0.00085370533634,0.132649496198,-0.157317310572,9.78102779388,-0.0180138288693,-0.0118062551169,0.541132206764,1486,1487,1528,1522,16.1870002747,523,0,0
19.9289457798,0.0145279020071,0.0244409237057,-0.000696511939168,0.115936174989,-0.148613005877,9.79178524017,-0.0180539524414,-0.0118033363192,0.541174296648,1486,1486,1528,1520,16.1870002747,523,0,0
20.0271828175,0.0142560368404,0.0254797339439,-0.00121057219803,0.115911066532,-0.18507553637,9.75772762299,-0.0180746401648,-0.0117988672297,0.541193750041,1485,1487,1528,1522,16.1870002747,522,0,0
20.1296730042,0.0140754524618,0.0278073009104,-0.000858738669194,0.115397788584,-0.171693831682,9.77641773224,-0.017995959824,-0.0118365012089,0.541144692182,1486,1487,1528,1522,16.1930007935,524,0,0
20.2280468941,0.0134494248778,0.0284148585051,-0.00121333100833,0.102026246488,-0.159722834826,9.78769397736,-0.0180162194899,-0.0118389400218,0.541126890453,1486,1487,1528,1522,16.1930007935,518,0,0
20.3302779198,0.0127147408202,0.0295401290059,-0.00212164898403,0.118282601237,-0.162594988942,9.81158256531,-0.0180830750162,-0.0118631904563,0.541189562063,1486,1487,1528,1520,16.1909999847,527,0,0
20.4285979271,0.0116969207302,0.0303005166352,-0.00205245707184,0.120686650276,-0.169285193086,9.77916908264,-0.0181076246096,-0.0118920327933,0.541252557884,1486,1487,1528,1522,16.1909999847,521,0,0
20.5310719013,0.0114617021754,0.0311122070998,-0.00228216010146,0.111116960645,-0.172646671534,9.77818393707,-0.0181212671633,-0.0118697463679,0.541273634105,1486,1486,1528,1522,16.1909999847,520,0,0
20.6293959618,0.0113811604679,0.0322684012353,-0.00253832386807,0.11877220124,-0.164030462503,9.79881000519,-0.0181007921831,-0.0119109363134,0.541284406081,1485,1487,1528,1522,16.1900005341,523,0,0
20.7276790142,0.0105437012389,0.0336261317134,-0.00362373306416,0.104416787624,-0.175999552011,9.81908798218,-0.018040094821,-0.0119287239143,0.541276373862,1486,1487,1528,1522,16.1900005341,524,0,0
20.830080986,0.0104983001947,0.0349601060152,-0.0046175988391,0.132637321949,-0.152541875839,9.75490093231,-0.0181113165427,-0.0118931384574,0.541317992665,1486,1487,1528,1522,16.1909999847,526,0,0
20.9283969402,0.0101607702672,0.0374053530395,-0.00455506099388,0.115418463945,-0.141531959176,9.8285074234,-0.0180877322161,-0.0118633999466,0.541395228494,1486,1486,1528,1522,16.1909999847,526,0,0
21.030703783,0.0102010080591,0.0377964451909,-0.00422443030402,0.125472858548,-0.151577785611,9.76487541199,-0.0181087383434,-0.0118259652885,0.541423834809,1486,1487,1528,1522,16.1909999847,522,0,0
21.1292359829,0.0112823313102,0.0391315072775,-0.00564086297527,0.12498755008,-0.162109941244,9.7496881485,-0.0181411919251,-0.0117432652043,0.541413671918,1486,1487,1528,1522,16.1919994354,526,0,0
21.2316539288,0.0112803503871,0.0393186435103,-0.00721432082355,0.130794137716,-0.158701315522,9.74913978577,-0.018121104666,-0.0117189434892,0.541377383464,1486,1487,1528,1522,16.1919994354,527,0,0
21.3300938606,0.0112269036472,0.0398628115654,-0.00713214743882,0.13360157609,-0.169769614935,9.77912330627,-0.0180174342628,-0.011700201423,0.541367257693,1486,1487,1528,1522,16.1919994354,525,0,0
21.4322109222,0.0113334152848,0.0398832857609,-0.00748002901673,0.0958081483841,-0.168822750449,9.79622936249,-0.018027587272,-0.0117124072943,0.541381623102,1486,1487,1528,1522,16.1919994354,524,0,0
21.5307438374,0.0113335559145,0.0406681634486,-0.00713273417205,0.112065330148,-0.155442133546,9.77062225342,-0.0179664353853,-0.0117295685444,0.541403272783,1486,1487,1528,1522,16.1919994354,524,0,0
21.6328089237,0.0114699238911,0.0415549911559,-0.0087252035737,0.126406878233,-0.160691604018,9.77441310883,-0.0180384521256,-0.011668726238,0.541470769113,1486,1486,1529,1522,16.188999176,522,0,0
21.7310628891,0.0117528354749,0.0419498160481,-0.00869332067668,0.114013463259,-0.177878305316,9.77961063385,-0.0180605961141,-0.0116731602308,0.541484920005,1486,1487,1528,1522,16.188999176,520,0,0
21.8298637867,0.0117139155045,0.0421188920736,-0.00740501703694,0.11256711185,-0.149181216955,9.7738866806,-0.0180696361982,-0.0117589363701,0.541492123662,1485,1487,1528,1522,16.188999176,524,0,0
21.9322519302,0.0118063446134,0.0426122434437,-0.00738964322954,0.134076833725,-0.173598319292,9.74444103241,-0.0181211238079,-0.0117591985906,0.541451663588,1485,1487,1528,1522,16.188999176,526,0,0
22.030602932,0.0115799130872,0.0419753454626,-0.00829636398703,0.115421339869,-0.144888192415,9.80618858337,-0.0181008685713,-0.0117699055495,0.5414572594,1486,1486,1528,1520,16.188999176,523,0,0
22.1323468685,0.0114399734885,0.0415783450007,-0.00910353474319,0.124986849725,-0.163551285863,9.79481983185,-0.0181523908427,-0.0117762244455,0.541498545107,1486,1486,1528,1520,16.1930007935,524,0,0
22.2311317921,0.0116441268474,0.0411597676575,-0.00912380684167,0.127842366695,-0.152070358396,9.77203845978,-0.0180618237747,-0.0117968621479,0.541567199691,1485,1487,1528,1522,16.1930007935,521,0,0
22.3333079815,0.0112354457378,0.0412975884974,-0.00911453086883,0.114931479096,-0.173610880971,9.74828624725,-0.0181057476627,-0.0118180780571,0.541635318748,1486,1486,1529,1520,16.1930007935,524,0,0
22.4316709042,0.0107636796311,0.0404664464295,-0.00808103941381,0.126397326589,-0.166912198067,9.76717853546,-0.0181396815097,-0.011874984019,0.541717249544,1486,1487,1528,1520,16.1930007935,523,0,0
22.5339488983,0.0100723812357,0.0400029309094,-0.00764680281281,0.123112097383,-0.166888967156,9.82905673981,-0.0181410479223,-0.0118697998508,0.541709801298,1486,1489,1528,1522,16.1930007935,521,0,0
22.6325378418,0.00972459185869,0.0395056083798,-0.00680126715451,0.115900546312,-0.152557298541,9.75479507446,-0.0181537598146,-0.0118936666345,0.541788873148,1485,1487,1528,1522,16.1930007935,524,0,0
22.7351028919,0.00903483014554,0.0397046878934,-0.00901070609689,0.117830298841,-0.175964847207,9.77251815796,-0.0181100578707,-0.0119092902878,0.541843384156,1486,1489,1528,1520,16.1930007935,520,0,0
22.8329529762,0.00926370732486,0.0383528918028,-0.0101736467332,0.127884805202,-0.161627426744,9.80811882019,-0.0180817549903,-0.0119047679051,0.541897790586,1486,1487,1528,1522,16.1919994354,524,0,0
22.9353659153,0.00960878841579,0.037544567138,-0.0112145030871,0.12739674747,-0.153485015035,9.77763843536,-0.0181240978546,-0.0119346708191,0.541941959849,1486,1489,1528,1522,16.1919994354,526,0,0
23.0337188244,0.00970815308392,0.0370898619294,-0.0114210089669,0.104421079159,-0.169771149755,9.74160194397,-0.018105236043,-0.0119385041975,0.54194509031,1485,1487,1528,1522,16.1919994354,526,0,0
23.1324539185,0.00956175755709,0.0362666621804,-0.0109673477709,0.132641136646,-0.154455453157,9.77863025665,-0.0180733500767,-0.0119744765785,0.541977955766,1485,1489,1528,1522,16.1919994354,520,0,0
23.234377861,0.00913501996547,0.0366058908403,-0.0108249774203,0.103471159935,-0.18508452177,9.79531097412,-0.0180410703442,-0.0119941936746,0.542003137609,1486,1487,1528,1522,16.1919994354,529,0,0
23.3331267834,0.00847543776035,0.0369922108948,-0.0100519517437,0.092418178916,-0.163590684533,9.7659740448,-0.0180729595572,-0.0119782817305,0.542064944079,1486,1487,1528,1520,16.1919994354,522,0,0
23.4350879192,0.0079493066296,0.0367361716926,-0.0108460681513,0.114942736924,-0.170731425285,9.7843837738,-0.0180377474905,-0.0120065472168,0.542028218787,1485,1487,1528,1522,16.1919994354,520,0,0
23.5335059166,0.00701209157705,0.0372568406165,-0.0114242136478,0.11591476202,-0.169750124216,9.7995891571,-0.018053931071,-0.0119948500849,0.54202330086,1486,1487,1528,1522,16.1919994354,525,0,0
23.6357219219,0.0065970402211,0.036923661828,-0.0124481935054,0.112533412874,-0.161645382643,9.80284786224,-0.0180362646968,-0.011971105671,0.542038742571,1486,1487,1528,1522,16.1919994354,525,0,0
23.7342829704,0.00617261044681,0.0375499688089,-0.0127579048276,0.126437366009,-0.176458969712,9.77529525757,-0.0180081762523,-0.0119077543172,0.541995370801,1486,1487,1528,1522,16.1919994354,523,0,0
23.8366179466,0.0063248090446,0.0378031916916,-0.0125275393948,0.115906894207,-0.171193480492,9.81625747681,-0.018025586079,-0.011880471725,0.542080801733,1486,1489,1528,1522,16.1919994354,527,0,0
23.9349279404,0.00667173136026,0.0381417833269,-0.0126488385722,0.117815941572,-0.168814390898,9.76866340637,-0.0180314415646,-0.0118657530175,0.542095985045,1486,1489,1528,1522,16.1879997253,523,0,0
24.0372338295,0.00646187877283,0.0381120853126,-0.0117693534121,0.119237303734,-0.167384892702,9.7696390152,-0.0180046562039,-0.0118893098605,0.542182956038,1486,1487,1528,1522,16.1879997253,524,0,0
24.1355159283,0.00622506439686,0.03799360618,-0.0122865643352,0.131692156196,-0.163543388247,9.7725353241,-0.0179701959612,-0.011903383672,0.542167239898,1486,1487,1528,1522,16.188999176,524,0,0
24.233730793,0.00655766902491,0.0387201942503,-0.0113378111273,0.115869820118,-0.170267805457,9.78391456604,-0.0179425028498,-0.0118586532794,0.542234434166,1485,1487,1528,1522,16.188999176,523,0,0
24.3367979527,0.00683076260611,0.038189124316,-0.00963982567191,0.086716465652,-0.177917778492,9.82905769348,-0.0179431834331,-0.0118667153,0.542357457604,1486,1486,1528,1520,16.188999176,521,0,0
24.4345479012,0.00650774780661,0.0374138988554,-0.0093192551285,0.135983273387,-0.175996541977,9.75917053223,-0.0179364951951,-0.0119645440524,0.542304399326,1486,1486,1528,1520,16.1949996948,523,0,0
24.5369918346,0.00591348297894,0.0374272279441,-0.00843190029263,0.106812931597,-0.174561679363,9.74632644653,-0.017976307041,-0.0119652633482,0.542300851313,1486,1486,1529,1522,16.1949996948,524,0,0
24.6350958347,0.00555557943881,0.0366936288774,-0.00692922109738,0.115403831005,-0.176021754742,9.81331825256,-0.0179806483327,-0.0120032096975,0.542303276186,1486,1487,1528,1522,16.1940002441,523,0,0
24.737473011,0.00513370893896,0.0359456762671,-0.00625656079501,0.108242660761,-0.167382270098,9.77913475037,-0.0179973447068,-0.0119914524074,0.542338656871,1486,1487,1528,1522,16.1940002441,519,0,0
24.8360888958,0.00515448581427,0.0346868261695,-0.0064402394928,0.102518841624,-0.163545295596,9.81284046173,-0.0180306944337,-0.0119879449286,0.542343299303,1486,1487,1528,1522,16.1940002441,522,0,0
24.9385519028,0.00435705110431,0.0336677953601,-0.00599690154195,0.117830052972,-0.164485231042,9.78147888184,-0.0180581663553,-0.0119767674988,0.542336583172,1486,1486,1529,1520,16.1949996948,520,0,0
25.0365719795,0.00380593305454,0.0325634665787,-0.00486221490428,0.109214350581,-0.151574313641,9.82716369629,-0.0179866452556,-0.0120019288954,0.542343661827,1486,1487,1529,1520,16.1949996948,522,0,0
25.1389369965,0.00327401515096,0.0321546494961,-0.00306055834517,0.106295831501,-0.158296346664,9.77163600922,-0.0180220802366,-0.0119770966787,0.542392323781,1486,1486,1529,1520,16.1919994354,519,0,0
25.2374060154,0.00273929489776,0.0329631008208,-0.00171735009644,0.127308383584,-0.152112841606,9.78463363647,-0.0180142889484,-0.0120035488118,0.542429557724,1486,1487,1528,1522,16.1919994354,525,0,0
25.3358669281,0.00274909636937,0.0334588959813,0.000244007984293,0.133595585823,-0.170251280069,9.796251297,-0.018048660538,-0.0120379670283,0.542386329263,1486,1487,1528,1522,16.1919994354,526,0,0
25.4381070137,0.00213945331052,0.0336034148932,0.00134717032779,0.119644254446,-0.161272570491,9.81179428101,-0.0180333614101,-0.0120499381403,0.542397346339,1486,1486,1529,1520,16.2010002136,523,0,0
25.5365109444,0.00185883778613,0.0344148389995,0.00307346461341,0.136942997575,-0.156370684505,9.78863620758,-0.0180545229397,-0.0119382035534,0.542459692824,1486,1487,1528,1522,16.2010002136,521,0,0
25.6388988495,0.000907384674065,0.0362248122692,0.00428826641291,0.13025598228,-0.156370699406,9.79097938538,-0.0180690002052,-0.0118816125079,0.542506740599,1486,1487,1528,1522,16.2010002136,523,0,0
25.7371039391,0.000240158202359,0.0382174886763,0.00662280945107,0.104853197932,-0.184654027224,9.80673217773,-0.0180925959395,-0.0119071385831,0.542504311894,1486,1487,1528,1522,16.2010002136,524,0,0
25.8394329548,-0.000881489890162,0.0390446186066,0.00815236568451,0.122610293329,-0.163540035486,9.77104759216,-0.0181197805673,-0.0119080249191,0.542471322432,1486,1487,1528,1522,16.2010002136,522,0,0
25.938297987,-0.00189444189891,0.0399667471647,0.00945331528783,0.123560704291,-0.171669781208,9.75396156311,-0.0181217522384,-0.0118832587441,0.542459050334,1485,1487,1528,1522,16.2019996643,526,0,0
26.0400359631,-0.00337123079225,0.0416997633874,0.00759792467579,0.120698958635,-0.151089638472,9.76479148865,-0.0181638566893,-0.0119919448514,0.542474865217,1486,1487,1528,1522,16.2019996643,523,0,0
26.1382448673,-0.00493414513767,0.0439713411033,0.00566212506965,0.122578978539,-0.164997279644,9.75014781952,-0.0182233395026,-0.0119784573908,0.542454991886,1486,1487,1528,1522,16.202999115,521,0,0
26.2406008244,-0.00599045865238,0.0448956154287,0.00557145709172,0.107718624175,-0.164505571127,9.80927371979,-0.0181837987543,-0.0119994382398,0.542395817413,1485,1489,1528,1522,16.202999115,526,0,0
26.3389840126,-0.006262823008,0.045090097934,0.00644084764645,0.115429475904,-0.163066253066,9.80429553986,-0.0182584521536,-0.011948356974,0.542419963003,1486,1487,1528,1522,16.202999115,523,0,0
26.4413559437,-0.00604627234861,0.0451574586332,0.00708863325417,0.115460820496,-0.165905475616,9.79769134521,-0.0182757552824,-0.0119368663375,0.542452568075,1486,1486,1529,1522,16.1989994049,528,0,0
26.5397768021,-0.00664186757058,0.0458685383201,0.00681724119931,0.104445114732,-0.155865430832,9.8043756485,-0.0183228522494,-0.0119835087349,0.54237807965,1486,1486,1528,1520,16.1989994049,522,0,0
26.6384317875,-0.00678039435297,0.0462988205254,0.00606017047539,0.127851203084,-0.175043359399,9.76770591736,-0.0183269222111,-0.011986549284,0.542362916066,1486,1486,1529,1520,16.1959991455,526,0,0
26.7403359413,-0.00615046499297,0.0468567125499,0.005642444361,0.109684236348,-0.157800897956,9.79485321045,-0.0183221363771,-0.0119898400014,0.542337395363,1486,1489,1528,1522,16.1959991455,523,0,0
26.8388898373,-0.00598381413147,0.0471598096192,0.00650602951646,0.101536989212,-0.168343365192,9.83330345154,-0.018210866292,-0.0120213399019,0.542368455108,1486,1487,1528,1522,16.1930007935,522,0,0
26.941272974,-0.00586362183094,0.0475530102849,0.00550071708858,0.104141436517,-0.177623018622,9.80870914459,-0.0180973469866,-0.0120502660002,0.542362145655,1486,1487,1528,1522,16.1930007935,527,0,0
27.0395708084,-0.00534882349893,0.0475649274886,0.00536867557094,0.122119486332,-0.184609174728,9.82244586945,-0.0180660191196,-0.0120434284839,0.542435111025,1486,1487,1528,1522,16.1930007935,524,0,0
27.1417658329,-0.00502721266821,0.0479133017361,0.00548385735601,0.131675079465,-0.164993703365,9.76916503906,-0.0180191766467,-0.0120989288188,0.54245412314,1486,1487,1528,1522,16.1879997253,525,0,0
27.2403538227,-0.00562000786886,0.0469234399498,0.00812961906195,0.115407116711,-0.170267805457,9.7349395752,-0.0180192952254,-0.0120907269475,0.54256582675,1486,1489,1528,1522,16.1879997253,523,0,0
27.342414856,-0.0058951517567,0.0465227738023,0.00904523115605,0.108247928321,-0.157805919647,9.7862663269,-0.0180372574165,-0.0121092803662,0.542548951121,1486,1486,1528,1520,16.186000824,525,0,0
27.4408848286,-0.00565998442471,0.0464132502675,0.00909758079797,0.103937461972,-0.17409196496,9.73303222656,-0.0180373040334,-0.0120808165315,0.542539850277,1485,1487,1528,1522,16.186000824,522,0,0
27.5435860157,-0.00544255040586,0.046230237931,0.00837250612676,0.119739472866,-0.148222878575,9.77862739563,-0.0179557602535,-0.0120815824061,0.542583389604,1486,1487,1528,1522,16.186000824,523,0,0
27.6414728165,-0.00418838020414,0.0453274101019,0.0086356792599,0.106741793454,-0.164555221796,9.81404018402,-0.0178301262333,-0.0120562915078,0.542644335211,1486,1487,1528,1522,16.1870002747,522,0,0
27.7398428917,-0.00352796958759,0.0450311265886,0.00872556772083,0.116423293948,-0.159188494086,9.77916145325,-0.0178377468013,-0.0120281270764,0.542668853333,1485,1489,1528,1522,16.1870002747,526,0,0
27.8421537876,-0.00279933470301,0.0437984541059,0.00900164991617,0.126902699471,-0.17551343143,9.78719520569,-0.0178274012593,-0.0120532422664,0.542629933135,1486,1487,1528,1522,16.1879997253,522,0,0
27.9410657883,-0.00262048421428,0.0433356575668,0.00923589244485,0.119239702821,-0.157811060548,9.74492168427,-0.0178017298169,-0.0120575465634,0.542631109454,1486,1487,1528,1522,16.1879997253,524,0,0
28.0428099632,-0.00182221923023,0.0421550199389,0.00852955877781,0.106337681413,-0.189397528768,9.80480384827,-0.0178143155215,-0.0119219950273,0.542691718579,1486,1487,1528,1522,16.1879997253,523,0,0
28.1414048672,-0.000287206203211,0.0415794849396,0.00787725672126,0.128788560629,-0.172187954187,9.78957843781,-0.0177582352266,-0.0119401646077,0.542697501747,1486,1487,1528,1522,16.188999176,524,0,0
28.2434937954,0.00163935392629,0.0418850146234,0.00749426102266,0.116863980889,-0.174075186253,9.80955696106,-0.0177236209822,-0.0118913053828,0.542740133467,1486,1487,1528,1522,16.188999176,524,0,0
28.3421208858,0.00263077905402,0.0414619594812,0.00727080274373,0.133592009544,-0.159242942929,9.750623703,-0.0176856301101,-0.0118391582597,0.54271256814,1485,1487,1528,1522,16.188999176,523,0,0
28.4444189072,0.00363877066411,0.0422655902803,0.00767903542146,0.113029256463,-0.16163520515,9.77819156647,-0.0176875045158,-0.0118169620099,0.542720455515,1486,1487,1528,1522,16.188999176,521,0,0
28.5425889492,0.00447933236137,0.0433157458901,0.00590924173594,0.112072497606,-0.1611559093,9.7758140564,-0.0177638134698,-0.0117446089522,0.542754941653,1486,1487,1528,1522,16.1979999542,524,0,0
28.6449928284,0.00564445368946,0.0441082045436,0.00429022265598,0.11303319037,-0.156845897436,9.75395393372,-0.0177283181041,-0.0116942294339,0.5428187616,1486,1487,1528,1522,16.1979999542,523,0,0
28.7433469296,0.00583089701831,0.0442599244416,0.00427442463115,0.138349428773,-0.161201998591,9.75429821014,-0.0176517086427,-0.0117068155269,0.54276276421,1486,1487,1528,1522,16.1979999542,523,0,0
28.8417088985,0.00699643464759,0.0438000746071,0.00391762750223,0.10340718925,-0.164551049471,9.74828720093,-0.0175864280319,-0.011704473876,0.542775747171,1486,1487,1528,1522,16.1979999542,525,0,0
28.9437987804,0.00788443349302,0.0439690984786,0.0034326731693,0.117817506194,-0.150621116161,9.80339336395,-0.0174645976889,-0.0115768143703,0.542697609712,1486,1487,1528,1522,16.1959991455,523,0,0
29.0428938866,0.00908208545297,0.044047690928,0.00367168430239,0.118371680379,-0.157733276486,9.80821895599,-0.017399342201,-0.0115597978981,0.542694337913,1486,1487,1528,1522,16.1959991455,521,0,0
29.1448988914,0.0100111095235,0.0437201671302,0.00323940790258,0.119257040322,-0.182220965624,9.83470439911,-0.0173798107035,-0.0115661983544,0.542753656743,1486,1487,1528,1522,16.1949996948,521,0,0
29.2429089546,0.0116507485509,0.0422134324908,0.00400104327127,0.126898050308,-0.166902959347,9.78152656555,-0.0172739213995,-0.0114973933765,0.542832693231,1486,1487,1528,1522,16.1949996948,522,0,0
29.3457548618,0.0129729174078,0.041259855032,0.00494993105531,0.126433193684,-0.159718647599,9.78533267975,-0.0172151172117,-0.0114460902107,0.542843591237,1486,1487,1528,1522,16.1949996948,521,0,0
29.4436168671,0.0154573498294,0.0397720895708,0.00637476751581,0.126116335392,-0.180664166808,9.82615852356,-0.0171371307854,-0.0113988041749,0.542895863377,1486,1489,1528,1522,16.1940002441,522,0,0
29.5462169647,0.0170365702361,0.0386055484414,0.00681506935507,0.108712658286,-0.147280469537,9.8053150177,-0.0171010261884,-0.0113594664288,0.542943813271,1486,1487,1528,1522,16.1940002441,523,0,0
29.6443228722,0.0179195143282,0.038132853806,0.00700710248202,0.108731679618,-0.150620758533,9.80432605743,-0.0170429105375,-0.0112975991111,0.542982655459,1486,1487,1528,1522,16.1940002441,526,0,0
29.747164011,0.0182255506516,0.0375553034246,0.00708613730967,0.108734183013,-0.176000744104,9.77289295197,-0.0170235726615,-0.0113021571352,0.542988631454,1486,1487,1528,1522,16.1919994354,525,0,0
29.8450608253,0.020843481645,0.0371389426291,0.00476476550102,0.129293143749,-0.152539461851,9.80002880096,-0.0170843518654,-0.0112563499962,0.543029626022,1485,1489,1528,1522,16.1919994354,521,0,0
29.9474098682,0.0229512769729,0.0370900034904,0.00411583017558,0.111593067646,-0.16164419055,9.78433132172,-0.0170943480467,-0.0112524918263,0.543016290559,1486,1487,1528,1522,16.1919994354,528,0,0
30.0457038879,0.0245361346751,0.0372817218304,0.00364599609748,0.103944636881,-0.173122614622,9.76916313171,-0.0171309040714,-0.0111421553135,0.543027890124,1486,1487,1528,1522,16.1919994354,524,0,0
30.1441409588,0.0263359248638,0.0375507138669,0.00371088529937,0.11978508532,-0.163482829928,9.76099014282,-0.0170800432955,-0.0110690978573,0.542997787161,1485,1487,1528,1522,16.1919994354,523,0,0
30.2464268208,0.0279633011669,0.0379151031375,0.0024680851493,0.118770539761,-0.169772729278,9.80101299286,-0.0171614819747,-0.0110780103019,0.54300574223,1486,1487,1528,1522,16.1919994354,523,0,0
30.3446838856,0.030273579061,0.0387327447534,0.00120183429681,0.129862248898,-0.173012509942,9.8309211731,-0.0171914369477,-0.0109660362778,0.543090317327,1486,1487,1527,1522,16.1919994354,524,0,0
30.4473598003,0.0313594229519,0.0391819924116,0.000195391301531,0.126962259412,-0.162051066756,9.8397769928,-0.0171481543313,-0.0109780435614,0.543089560044,1486,1489,1528,1520,16.1919994354,522,0,0
30.5453999043,0.0327840670943,0.0391356572509,-0.000450585328508,0.105887524784,-0.156342670321,9.81902885437,-0.0170938321837,-0.0110190042774,0.543079059579,1485,1487,1528,1522,16.1919994354,525,0,0
30.6478538513,0.0335635431111,0.0381091497838,-0.00171361118555,0.110655091703,-0.171659618616,9.79454040527,-0.0170443727728,-0.0110232531862,0.543124646171,1486,1489,1163,1209,16.1919994354,520,0,0
30.7462937832,0.0351654887199,0.03779277578,-0.00263197766617,0.135021001101,-0.159259170294,9.77238941193,-0.0169485850807,-0.010988871753,0.543121847576,1485,1487,1099,1156,16.1919994354,523,0,0
30.8484079838,0.0360609926283,0.0377058945596,-0.00277555617504,0.110143706203,-0.167869463563,9.77969455719,-0.0169273169003,-0.0109651703271,0.543168736054,1493,1491,1098,1099,16.1919994354,521,0,0
30.9469180107,0.0366106517613,0.0376924499869,-0.00279442127794,0.127894833684,-0.165454566479,9.79558944702,-0.0169061511628,-0.0109687149313,0.543151096745,1493,1490,1098,1099,16.1900005341,525,0,0
31.0490939617,0.0386084541678,0.0363522991538,-0.00184843200259,0.108560353518,-0.173234507442,9.82611370087,-0.0168404519052,-0.0109804968447,0.543099610966,1488,1486,1098,1099,16.1900005341,521,0,0
31.1475119591,0.0402260683477,0.0353419035673,-0.00117123639211,0.104429461062,-0.155887335539,9.8038444519,-0.0167702678526,-0.0110136806394,0.543062585707,1486,1486,1096,1099,16.1900005341,522,0,0
31.2459747791,0.0414025597274,0.0331557132304,0.000743273529224,0.119248069823,-0.162114366889,9.79196357727,-0.0166736739204,-0.0111024411651,0.543022453045,1486,1486,1092,1099,16.2000007629,525,0,0
31.3484098911,0.0422873906791,0.0319205969572,0.00125032139476,0.120204210281,-0.152540788054,9.8266658783,-0.0166504331601,-0.0111483547807,0.543049175897,1485,1486,1092,1099,16.2000007629,521,0,0
31.4465818405,0.0438933968544,0.0290441345423,0.00261858594604,0.123064145446,-0.16547755897,9.76153373718,-0.016641400752,-0.0111422937265,0.543122328696,1486,1486,1092,1099,16.2000007629,524,0,0
31.548774004,0.044031444937,0.0285625532269,0.00325196702033,0.11732968688,-0.164516344666,9.76915740967,-0.0166434293681,-0.0111200169639,0.543102036157,1485,1486,1091,1099,16.2000007629,522,0,0
31.6473588943,0.0450298115611,0.0261001326144,0.00432597100735,0.125467717648,-0.156846508384,9.7857875824,-0.0166237276668,-0.0110830691575,0.543095444127,1486,1484,1092,1099,16.1970005035,524,0,0
31.7499189377,0.0457707382739,0.025026736781,0.00358908460476,0.105849862099,-0.170735135674,9.82813072205,-0.0165903203359,-0.0111401403884,0.543074106984,1486,1486,1092,1099,16.1970005035,518,0,0
31.8480229378,0.0460344776511,0.0233961753547,0.00383081985638,0.116859197617,-0.18077391386,9.76016712189,-0.0165819112182,-0.0111378183801,0.543042012125,1486,1485,1092,1099,16.1970005035,523,0,0
31.9501068592,0.0464640520513,0.0225439649075,0.00381561508402,0.121149711311,-0.155424192548,9.76626873016,-0.0165837852365,-0.0111388406918,0.543025698514,1486,1486,1092,1099,16.1970005035,525,0,0
32.0489659309,0.0458056814969,0.0209546368569,0.00384305720218,0.116409048438,-0.191277593374,9.8300037384,-0.0166752232575,-0.0111118786365,0.543116068097,1486,1486,1090,1099,16.1919994354,534,0,0
32.1509289742,0.0442929640412,0.0199960451573,0.00492414599285,0.0484681017697,-0.292822390795,9.83288860321,-0.0166660786595,-0.011142777821,0.542776211845,1486,1486,1091,1099,16.1919994354,535,0,0
32.2494399548,0.0443582125008,0.0187479294837,0.00552005134523,0.0245172921568,0.228452265263,9.71154308319,-0.0166126782391,-0.0113046979296,0.542575403295,1486,1486,1090,1099,16.1909999847,534,0,0
32.3479750156,0.0449101962149,0.01628109999,0.00522694131359,0.212931737304,-0.274133056402,9.83201313019,-0.0167401706348,-0.0111519868905,0.543028683893,1486,1486,1089,1099,16.1909999847,534,0,0
32.4502899647,0.0444457009435,0.0157320853323,0.0051863049157,0.127353221178,-0.0237702783197,9.98023223877,-0.0167467687601,-0.0112142386813,0.542849173794,1485,1486,1089,1099,16.1909999847,536,0,0
32.5484478474,0.0438433364034,0.0149182109162,0.00532595254481,0.149351447821,-0.190357893705,9.85283660889,-0.0168176175043,-0.0112298589573,0.542819497017,1486,1486,1089,1099,16.1900005341,533,0,0
32.6512129307,0.0438642576337,0.0137526160106,0.00600791210309,0.00869034789503,-0.195275962353,9.98504543304,-0.0168034998664,-0.0112515261412,0.542792383369,1486,1486,1089,1099,16.1900005341,537,0,0
32.749106884,0.0446488931775,0.011909218505,0.00651547499001,0.431050747633,0.424323350191,9.32565593719,-0.0167807601093,-0.0113192044406,0.542756196459,1486,1486,1088,1099,16.1800003052,538,0,0
32.8513638973,0.0445692203939,0.0131592042744,0.00438409065828,0.0929980352521,-0.318130582571,9.75825881958,-0.0168706556813,-0.0113329941345,0.542809357234,1485,1486,1088,1099,16.1800003052,538,0,0
32.9500157833,0.0429622530937,0.00997223332524,0.00395040260628,0.128215283155,-0.0970274209976,9.5262298584,-0.0166943814998,-0.011405124525,0.54273513087,1486,1486,1088,1099,16.1749992371,541,0,0
33.0522677898,0.0445876456797,0.00694074388593,0.00494404975325,0.107294782996,-0.441149622202,9.87560367584,-0.0167516271693,-0.0114508048742,0.542696088505,1486,1486,1088,1099,16.1749992371,542,0,0
33.1503620148,0.0430782437325,0.00648506684229,0.00291050854139,0.137875810266,-0.104183264077,9.75685882568,-0.0167859521628,-0.0115009236343,0.542709751214,1486,1486,1089,1099,16.1770000458,542,0,0
33.2526907921,0.0406923368573,0.0072827572003,0.00127102364786,0.220174565911,-0.344039410353,9.86233139038,-0.0167392050344,-0.0115665639942,0.542671067424,1486,1486,1088,1099,16.1770000458,553,0,0
33.3512527943,0.0406493023038,0.00446170149371,0.00151718594134,0.235512912273,0.121064938605,9.53707122803,-0.0166216819861,-0.0118511261011,0.54247307146,1485,1486,1088,1099,16.1770000458,569,0,0
33.4533917904,0.0391616970301,0.00198535365053,0.00128124339972,0.656331002712,-1.2503054142,10.4521188736,-0.0165008460139,-0.0127281051462,0.542307684093,1486,1486,1088,1099,16.1630001068,538,0,0
33.5517640114,0.03772906214,0.00470635388047,-0.00222229189239,-0.0537221804261,0.27317160368,9.49052333832,-0.01656889845,-0.0118215111878,0.542391137044,1486,1484,1089,1099,16.1630001068,539,0,0
33.6503579617,0.0376885160804,0.00671385042369,-0.00223990739323,0.0873993337154,0.261250197887,9.66634178162,-0.0167178478367,-0.0119214200267,0.542454835096,1486,1484,1089,1099,16.1630001068,540,0,0
33.7524628639,0.035874299705,0.00577677041292,-0.00341879902408,0.0472647733986,0.0206731501967,9.40222644806,-0.016800890759,-0.0117941207055,0.542559536658,1486,1486,1089,1099,16.1480007172,543,0,0
33.8508470058,0.035035867244,0.00694723054767,-0.00692082708701,-0.0134875224903,-0.283239603043,10.4923295975,-0.0168153878557,-0.0118535931048,0.542479276346,1486,1486,1089,1099,16.1480007172,538,0,0
33.9532129765,0.0338989384472,0.00500952452421,-0.0092128990218,0.00931065529585,-0.692096590996,10.1061067581,-0.0168359213646,-0.011862548344,0.542404297298,1486,1486,1089,1099,16.1459999084,540,0,0
34.0516119003,0.0334959663451,0.00555973965675,-0.0123334145173,0.17995890975,-0.0931367129087,10.2369642258,-0.0167414242099,-0.0118836976632,0.542326810701,1486,1486,1103,1108,16.1459999084,534,0,0
34.1539669037,0.0328117981553,0.00516466097906,-0.0146360136569,0.101555168629,0.0657450333238,9.89941120148,-0.0168342089912,-0.0119212717192,0.54236008865,1486,1486,1109,1265,16.1450004578,544,0,0
34.2524859905,0.0313432104886,0.00529650785029,-0.0175612568855,0.224912270904,-0.430186510086,9.66169834137,-0.0168469193154,-0.0119606272405,0.542263258788,1486,1486,1149,1473,16.1450004578,540,0,0
34.3547317982,0.0300190430135,0.00623892713338,-0.0199493486434,-0.00126880698372,0.0384596139193,9.89037895203,-0.0169655418183,-0.0119152044069,0.542290187995,1486,1486,1150,1519,16.1450004578,538,0,0
34.4529089928,0.02918584086,0.0063379383646,-0.0207688249648,0.0599054805934,-0.0841500386596,10.2489824295,-0.0170474522551,-0.0118380243862,0.542353692368,1486,1484,1151,1517,16.1420001984,551,0,0
34.5552728176,0.0291738286614,0.00671754218638,-0.0244098510593,0.26841968298,0.0312298070639,9.60177993774,-0.0171510040096,-0.0118465142311,0.542308424202,1486,1486,1163,1519,16.1420001984,549,0,0
34.6535449028,0.0279458779842,0.00629418063909,-0.025185726583,-0.343549489975,-0.180317938328,10.3668708801,-0.017282991169,-0.0117150675773,0.542252148214,1486,1484,1180,1517,16.1420001984,539,0,0
34.752188921,0.028142420575,0.00457035936415,-0.0288665033877,0.177597075701,0.137070044875,9.50529289246,-0.0171321003331,-0.0118664967111,0.5421517548,1486,1484,1178,1517,16.1340007782,539,0,0
34.8543767929,0.0251655392349,0.00541697023436,-0.032782677561,0.23184800148,-0.208451166749,9.70534038544,-0.0170457914807,-0.0119469741356,0.542054991342,1485,1486,1177,1520,16.1340007782,536,0,0
34.9526259899,0.0251009184867,0.00592452147976,-0.0349157601595,0.0207929126918,-0.0314425006509,10.0591068268,-0.017024412459,-0.0119571615155,0.541971890927,1486,1486,1177,1520,16.142999649,542,0,0
35.0550398827,0.023812610656,0.00709914788604,-0.0396884009242,0.112576454878,-0.429747909307,9.34819412231,-0.0170458849873,-0.0119689851444,0.541965814035,1486,1486,1177,1520,16.142999649,540,0,0
35.1536707878,0.0233205296099,0.00618646806106,-0.0422524884343,-0.00832800380886,-0.0618940889835,9.84346008301,-0.0171232007711,-0.0119363890805,0.541987693211,1486,1486,1176,1520,16.142999649,542,0,0
35.2557737827,0.0207482390106,0.00753415841609,-0.0443274341524,0.0336435027421,-0.511078238487,9.76154232025,-0.0170819835182,-0.0119663969263,0.541960110285,1486,1486,1176,1520,16.1410007477,539,0,0
35.3542540073,0.0194895379245,0.00811399426311,-0.0475003384054,0.305549561977,-0.043475612998,9.69231128693,-0.0170139832904,-0.0119829312943,0.541809213964,1486,1484,1177,1520,16.1410007477,540,0,0
35.4564678669,0.0196973979473,0.00751340715215,-0.0473110750318,0.0886405855417,0.227944850922,9.41208171844,-0.0170979766165,-0.0118921247628,0.541915437638,1486,1486,1177,1519,16.142999649,537,0,0
35.5547308922,0.0187904797494,0.0104393325746,-0.0465459860861,-0.121529839933,0.252279162407,9.4974489212,-0.0171294123777,-0.0118747232901,0.54193965287,1486,1486,1177,1519,16.142999649,539,0,0
35.6571009159,0.0172290783376,0.0104085672647,-0.049584209919,0.288317382336,-0.301045924425,10.4122581482,-0.017025725596,-0.0119399822106,0.54189338147,1486,1486,1177,1518,16.142999649,540,0,0
35.7559158802,0.0164508428425,0.0097793051973,-0.0479780286551,0.066754616797,-0.0342573449016,9.46034431458,-0.0170778249532,-0.012020437643,0.541884616982,1486,1486,1177,1520,16.138999939,534,0,0
35.8577308655,0.015488400124,0.00996683817357,-0.0502397567034,0.061153717339,0.176067858934,9.72959804535,-0.0170518835467,-0.012076504079,0.541831505711,1486,1486,1177,1519,16.138999939,539,0,0
35.9560329914,0.013920254074,0.0098569970578,-0.0507010743022,0.170119956136,-0.0154613023624,9.68940448761,-0.0171386403999,-0.0120793476231,0.541728289352,1486,1486,1177,1520,16.1380004883,538,0,0
36.0543279648,0.0136111835018,0.00884340517223,-0.0507029853761,0.422743797302,0.167498067021,9.91363143921,-0.0171734959989,-0.0121199997403,0.541697000464,1486,1486,1177,1520,16.1380004883,539,0,0
36.156940937,0.0108658801764,0.00926273781806,-0.0512718819082,0.0872853547335,0.0464735068381,9.42047309875,-0.0171179008274,-0.0121910565394,0.541533327679,1486,1484,1177,1519,16.1350002289,542,0,0
36.2551178932,0.0102423401549,0.00926733389497,-0.0523417815566,0.259395122528,-0.193213403225,9.96167850494,-0.0171915425567,-0.012269424196,0.541604434931,1486,1486,1177,1519,16.1350002289,536,0,0
36.3572869301,0.00791250634938,0.0077529354021,-0.0538803488016,0.342040449381,-0.296237707138,10.1684846878,-0.0172413377351,-0.0122692569993,0.541609036947,1486,1486,1177,1520,16.1350002289,542,0,0
36.456938982,0.00661032972857,0.00524967443198,-0.0514356419444,0.256225526333,-0.155409231782,9.29303836823,-0.0171380095838,-0.0124098713535,0.541612121431,1486,1484,1177,1519,16.1369991302,542,0,0
36.5580809116,0.0054770396091,0.00531014427543,-0.0500062778592,-0.104914031923,-0.64430975914,9.46531295776,-0.0171643463513,-0.012408438047,0.541504697137,1486,1484,1177,1519,16.1369991302,539,0,0
36.6564528942,0.00404101796448,0.00450631789863,-0.0507000572979,0.203580901027,-0.18385232985,9.41127300262,-0.0171856631025,-0.0124032401229,0.541613034687,1486,1486,1177,1520,16.1369991302,538,0,0
36.7589168549,0.00195885938592,0.00375866983086,-0.0502168275416,0.344179153442,-0.215285405517,9.76280021667,-0.0172548615749,-0.0124940073337,0.541572656048,1486,1486,1177,1520,16.1329994202,539,0,0
36.8572309017,0.00124013342429,0.00296373898163,-0.0507836416364,0.00642576161772,-0.0554060302675,10.0594949722,-0.0172201527635,-0.0125241987403,0.541656895965,1485,1486,1177,1520,16.1329994202,533,0,0
36.9597380161,-0.00120548740961,0.00405737571418,-0.0499007813632,0.271012067795,-0.108066044748,9.09571266174,-0.0171969415752,-0.0124991235928,0.541591055729,1485,1486,1176,1519,16.1289997101,545,0,0
37.0580170155,-0.00181718869135,0.00396581599489,-0.0489128492773,0.0721869543195,0.23924075067,10.0286655426,-0.0173010621235,-0.0125033586726,0.54151577221,1486,1486,1177,1519,16.1289997101,539,0,0
37.156252861,-0.00213867984712,0.00212346599437,-0.0540659874678,0.383325994015,-0.242225721478,9.18906402588,-0.0172779770229,-0.0124412336171,0.541462321082,1486,1486,1177,1520,16.1289997101,540,0,0
37.2591798306,-0.00354555528611,0.00295476499014,-0.0512739159167,0.323914766312,-0.468985825777,9.96459579468,-0.017296445896,-0.0123868893798,0.541465661683,1486,1486,1177,1520,16.1270008087,540,0,0
37.3572468758,-0.00406554434448,0.00311254826374,-0.052437800914,0.205296754837,-0.240060150623,9.7102804184,-0.0173530489134,-0.0123430810337,0.541494179746,1486,1486,1177,1520,16.1270008087,544,0,0
37.4596869946,-0.00532263983041,0.00286323809996,-0.0554806403816,0.0432085283101,-0.0515343770385,9.60513019562,-0.0173964312866,-0.0123126674321,0.541473791443,1486,1486,1177,1519,16.1270008087,541,0,0
37.5575218201,-0.00626027304679,0.00321507547051,-0.0548478960991,-0.146165728569,0.0362468548119,10.1685266495,-0.0173847355575,-0.0123190582574,0.541487386618,1486,1486,1177,1520,16.125,536,0,0
37.6601819992,-0.00603649392724,0.00269629759714,-0.0572707392275,-0.134184941649,-0.467943906784,9.2876291275,-0.0174379454387,-0.0123180221855,0.541415937881,1485,1486,1177,1520,16.125,539,0,0
37.7586128712,-0.0055148168467,0.00532010570168,-0.0598408505321,0.179988324642,-0.104190453887,10.1594638824,-0.0173856267833,-0.012358738463,0.5413420927,1486,1486,1178,1519,16.1210002899,538,0,0
37.8606338501,-0.00621910672635,0.00405525509268,-0.0603493973613,-0.172960951924,0.20887376368,10.3068408966,-0.0173803551612,-0.0123089647647,0.541355733375,1486,1486,1178,1519,16.1210002899,543,0,0
37.9592030048,-0.00695644831285,0.00482557481155,-0.0618028081954,-0.00934613402933,-0.35520863533,9.58279418945,-0.0174311185593,-0.0123313898982,0.541394061743,1486,1484,1178,1519,16.1210002899,541,0,0
38.0615258217,-0.00710198841989,0.00569878704846,-0.0601543784142,0.265854120255,0.258439272642,9.34289360046,-0.0174735636759,-0.0123699018181,0.541373487606,1485,1486,1178,1517,16.1240005493,539,0,0
38.1596269608,-0.008888582699,0.00627753790468,-0.0571161583066,-0.259119659662,-0.00306031154469,10.3054494858,-0.0175290111547,-0.0123491108692,0.541469462261,1486,1486,1289,1518,16.1240005493,535,0,0
38.2579557896,-0.009875331074,0.00614456553012,-0.0593857318163,-0.643806815147,-0.632380962372,9.69149684906,-0.017561711785,-0.0123096277365,0.541471122379,1485,1486,1391,1518,16.1229991913,538,0,0
38.3605759144,-0.00977739877999,0.00668894220144,-0.0596418492496,0.0144925545901,-0.132277682424,10.0650053024,-0.0174424490926,-0.0124207929506,0.541481943999,1486,1486,1451,1518,16.1229991913,534,0,0
38.4588449001,-0.0120028741658,0.00786570739001,-0.059982907027,0.224532708526,-0.00799704901874,9.68189811707,-0.0174429548945,-0.0123738938316,0.541459089047,1486,1484,1516,1518,16.1200008392,542,0,0
38.5612289906,-0.012589816004,0.00692075351253,-0.0593001842499,-0.267292380333,-0.524738788605,9.31100654602,-0.0174649042677,-0.0122224585017,0.541391365037,1486,1484,1518,1518,16.1200008392,541,0,0
38.6596808434,-0.0127706462517,0.00931650400162,-0.0578879974782,0.319423943758,-0.194339215755,10.6920490265,-0.0174441863514,-0.0123055639987,0.541382974501,1486,1486,1588,1518,16.1200008392,581,0,0
38.7619478703,-0.0116005595773,0.00902804546058,-0.0577505193651,-0.385559052229,-0.166654899716,9.77441692352,-0.0170349649071,-0.0122813341072,0.541324065198,1486,1486,1627,1518,16.1119995117,607,0,0
38.8604109287,-0.0175504554063,0.0100615955889,-0.0519685931504,0.396776527166,-0.585079729557,9.31801605225,-0.0170947581833,-0.0124520340299,0.541281448463,1486,1486,1685,1518,16.1119995117,764,0,0
38.962843895,-0.0188747309148,-0.00125080253929,-0.0284208878875,-0.222438499331,-0.422364801168,12.3154449463,-0.0159825828375,-0.0143088106025,0.540971830737,1486,1486,1701,1518,16.1119995117,875,0,0
39.0610339642,-0.0434699505568,-0.0233142059296,0.29324606061,0.16333077848,-0.141621679068,13.0183601379,-0.00424938349787,-0.0363182576659,0.538344124728,1486,1486,1701,1518,16.0349998474,959,0,0
39.1631009579,-0.0735296234488,-0.0664757713675,0.858050167561,2.3060939312,1.69353318214,13.7560148239,0.000924789210248,-0.0446583475659,0.545131667978,1486,1486,1701,1521,16.0349998474,976,0,0
39.2614178658,-0.0855450183153,-0.117270171642,1.30324411392,-2.01508402824,-1.38154947758,17.0453090668,0.00285397504564,-0.0413263468205,0.556395897749,1486,1486,1701,1521,15.8680000305,976,0,0
39.3639140129,-0.0983678549528,-0.159030914307,1.79601538181,1.44065821171,3.30935811996,13.1954555511,0.00331738615677,-0.0324938439984,0.566215581362,1486,1486,1701,1521,15.8680000305,620,0,0
39.4620800018,-0.0870281681418,-0.162983343005,2.01770544052,-0.501004934311,-0.409948468208,12.3310108185,-0.0033595549803,-0.0129432106166,0.577051009637,1485,1485,1701,1521,15.8680000305,807,0,0
39.561070919,-0.061747521162,-0.16173556447,2.05052900314,-0.0583812072873,-0.024413915351,7.65186691284,-0.0190662773511,0.0144741507652,0.585345651914,1486,1486,1700,1520,15.8680000305,828,0,0
39.6628918648,-0.0357461683452,-0.137205153704,2.03313302994,-0.149619400501,-0.0232919361442,8.71188354492,-0.0250822621912,0.0225169724161,0.588748349085,1485,1486,1700,1521,15.8680000305,821,0,0
39.7615849972,0.000683003454469,-0.103340119123,2.03633117676,0.497184187174,-0.125777095556,9.28811073303,-0.0276836485983,0.0169696039023,0.589906488303,1486,1486,1700,1521,15.625,804,0,0
39.8637077808,0.00905627198517,-0.0930576622486,2.03583955765,-0.321926832199,-0.0528769344091,11.6743211746,-0.0290618963109,0.0140149922443,0.589802558848,1485,1486,1700,1523,15.625,800,0,0
39.9620277882,0.0317606404424,-0.066090233624,2.04151821136,-0.861051917076,0.359302133322,10.4891996384,-0.0313418108249,0.00989954792408,0.588375467179,1485,1486,1700,1523,15.625,779,0,0
40.0642399788,0.0405717119575,-0.0552792921662,2.04764223099,0.774219572544,0.366504698992,9.16353607178,-0.0334319113473,0.00716618612087,0.586236987431,1485,1486,1700,1523,15.5659999847,799,0,0
40.1625318527,0.0482513420284,-0.0304945260286,2.04833674431,-0.580150425434,0.0455640032887,10.1552124023,-0.0348886392442,0.00377236784521,0.583424246145,1485,1486,1700,1523,15.5659999847,813,0,0
40.2649378777,0.0490285456181,-0.0198713373393,2.04962992668,0.442228913307,-0.294388025999,8.69328403473,-0.0368000730175,0.000947055620732,0.5813568547,1485,1486,1700,1522,15.517999649,819,0,0
40.3632068634,0.0484550595284,-0.00838653184474,2.05134153366,0.0760344564915,0.127320170403,12.3487033844,-0.0370419662743,0.000354101014783,0.580842767893,1485,1486,1700,1522,15.517999649,730,0,0
40.4656999111,0.0444627925754,0.00711717549711,1.92265272141,0.100276567042,-0.959349274635,7.71600389481,-0.0387098587751,-0.00108794174671,0.577783116273,1486,1486,1680,1522,15.517999649,755,0,0
40.5638959408,0.0402639918029,0.00996084418148,1.76820445061,1.52469575405,0.187257856131,8.95987224579,-0.0423855471375,0.00500139960364,0.576384390829,1486,1486,1671,1522,15.4879999161,759,0,0
40.6623578072,0.0392919108272,0.0201651453972,1.60961222649,0.0749094933271,-0.0212914217263,8.95792484283,-0.0416991141047,0.00235956040146,0.575687209442,1486,1486,1665,1522,15.4879999161,682,0,0
40.7645919323,0.0389572046697,0.028368152678,1.54990816116,-1.56030988693,-0.115353517234,8.87020206451,-0.0416679876571,0.00040407219003,0.575854347652,1486,1486,1616,1521,15.4879999161,612,0,0
40.8638699055,0.0345997326076,0.0349370837212,1.04524612427,-0.260465890169,-0.820292532444,4.22674798965,-0.0546276779741,0.0136361546458,0.576052537919,1486,1486,1478,1522,15.4879999161,613,0,0
40.9654409885,0.033386901021,0.0387469120324,0.56852388382,1.12513911724,-0.946099817753,4.00091648102,-0.0664562335211,0.0289043587371,0.575244794765,1486,1486,1419,1522,15.5439996719,614,0,0
41.0639858246,0.0346004590392,0.0555997528136,-0.00994628854096,-0.604523479939,-0.44338670373,6.40984106064,-0.0721475349263,0.033166936688,0.573565512888,1486,1486,1387,1521,15.5439996719,617,0,0
41.1659789085,0.0345740504563,0.0698753222823,-0.426186829805,-0.405698269606,-0.81593644619,4.41682434082,-0.0718820324627,0.0266768517532,0.571858561309,1485,1486,1363,1522,15.5439996719,877,0,0
41.2643368244,0.0214759632945,0.0924434959888,-0.785439431667,-1.94922053814,-0.519362866879,12.1904115677,-0.0611394186678,0.00917363472507,0.568072726049,1486,1484,1365,1521,15.5550003052,820,0,0
41.3666419983,0.0151324188337,0.110100761056,-0.802206575871,-0.639197766781,-1.24118685722,9.97803878784,-0.0414193400485,-0.00677776123248,0.565251664606,1485,1484,1364,1521,15.5550003052,795,0,0
41.4651529789,0.00585710722953,0.109369650483,-0.791446447372,-0.823011100292,-0.355578243732,10.1522674561,-0.0332848953193,-0.00860997533593,0.561982466842,1485,1486,1365,1522,15.5550003052,806,0,0
41.5677909851,0.00340563245118,0.105336904526,-0.79751008749,-2.04669904709,-0.094150274992,13.2373094559,-0.0276955191578,-0.00695593987969,0.559323096766,1486,1486,1393,1521,15.5100002289,971,0,0
41.6656768322,0.00310864578933,0.0894530043006,-0.372714102268,-1.6602768898,-2.60517096519,17.2228412628,-0.0226178603806,-0.0140651842431,0.556940954448,1485,1486,1458,1520,15.5100002289,619,0,0
41.7642838955,0.00509300408885,0.071743555367,-0.211690440774,1.3120085001,0.986747324467,10.551202774,-0.0182228634989,-0.0177627872488,0.555583529081,1485,1486,1462,1521,15.5100002289,870,0,0
41.8663539886,0.00202625524253,0.0578372403979,-0.11738473177,1.87299704552,-0.441189229488,8.25590515137,-0.0230990429441,-0.0128652673535,0.555760188342,1486,1486,1470,1521,15.4399995804,759,0,0
41.9650559425,0.00434931647033,0.0550642684102,-0.0741470828652,0.196661382914,-0.237358808517,10.1905117035,-0.0259017960087,-0.0102656704384,0.555710820412,1486,1486,1470,1521,15.4399995804,798,0,0
42.0676579475,0.00527615938336,0.0498902611434,-0.0644146874547,-1.79356718063,-1.08783566952,12.7611141205,-0.0329089979302,-0.00904260898849,0.555922059624,1486,1486,1469,1520,15.4169998169,787,0,0
42.1660039425,0.00869067106396,0.0532179921865,-0.05850943923,1.07647228241,-0.0792123302817,10.3864812851,-0.0377108410815,-0.00920278333566,0.556618802637,1485,1486,1469,1520,15.4169998169,788,0,0
42.2677249908,0.00230148341507,0.0540427193046,-0.0491652451456,0.70194375515,-1.28702926636,8.53873252869,-0.0380810682036,-0.00913785564655,0.557030054155,1486,1486,1470,1520,15.404999733,763,0,0
42.3664329052,-0.00166122568771,0.0591082088649,-0.0394497364759,0.468849807978,0.0164928194135,10.4792327881,-0.036402781026,-0.00922683240082,0.55716607093,1486,1486,1470,1520,15.404999733,796,0,0
42.468392849,-0.00356140080839,0.0635224059224,-0.030029296875,0.861017823219,0.378330528736,11.0251922607,-0.0345424917327,-0.0116943323566,0.557675393193,1486,1486,1470,1521,15.404999733,778,0,0
42.566849947,-0.00981373339891,0.0651636123657,-0.0191070605069,-2.0561003685,-1.00172388554,11.6231555939,-0.0337314636967,-0.0116248380399,0.558071591437,1486,1486,1469,1520,15.3900003433,743,0,0
42.6690897942,-0.0240273680538,0.063751257956,-0.0122184595093,-1.46328043938,-1.09801864624,9.44034767151,-0.0303463564594,-0.0115491819075,0.558475939325,1485,1486,1469,1520,15.3900003433,807,0,0
42.7675578594,-0.0288540385664,0.0598948001862,-0.000886188820004,-1.40711092949,-0.248210772872,9.6251449585,-0.0300586867417,-0.00911729307235,0.558400335407,1486,1486,1469,1520,15.3780002594,793,0,0
42.869879961,-0.0298539791256,0.0584433041513,-0.000491058337502,-0.190183252096,-0.124667674303,10.6590099335,-0.0266666726402,-0.00983614177808,0.558190850272,1485,1486,1469,1520,15.3780002594,773,0,0
42.9681808949,-0.0290719904006,0.0570515803993,0.0112158535048,1.66097664833,-0.607365727425,7.13880872726,-0.022983466719,-0.0079712856409,0.557285683529,1485,1486,1469,1520,15.3780002594,799,0,0
43.0668869019,-0.0295762456954,0.0477296598256,-0.00187808845658,-0.501142501831,-0.152514412999,11.3119401932,-0.0190681944639,-0.00812473032767,0.556047699395,1485,1486,1470,1520,15.3629999161,769,0,0
43.1687729359,-0.0242278557271,0.0430362410843,-0.000331819057465,-0.827116310596,-1.71338307858,10.9677267075,-0.0179504543049,-0.00765473904103,0.554714273439,1486,1486,1470,1521,15.3629999161,760,0,0
43.2674407959,-0.0204385109246,0.0368487089872,0.00442770216614,1.30483484268,-0.0161112044007,10.9082403183,-0.0165646487635,-0.00653561798884,0.554192244012,1485,1486,1470,1520,15.3579998016,778,0,0
43.3696329594,-0.0224089957774,0.0199817270041,-0.00427650334314,-0.699365496635,1.10174965858,9.74504375458,-0.0144383678611,-0.00431177915679,0.551701979638,1486,1486,1470,1520,15.3579998016,777,0,0
43.4678897858,-0.0116331540048,0.0146985650063,-0.0141653707251,1.89701652527,0.881684184074,8.70914173126,-0.0138415238592,-0.00390353413403,0.550507288686,1486,1485,1475,1520,15.3520002365,789,0,0
43.5702869892,-0.00701299216598,0.00697180535644,-0.009027518332,0.761072218418,-0.198402270675,8.68723583221,-0.0154007925373,-0.00510245309471,0.549223840933,1486,1486,1479,1520,15.3520002365,798,0,0
43.6688668728,-0.000245435396209,-0.00855933316052,-0.0315125733614,0.387063264847,-0.712521791458,7.55359697342,-0.0148089523149,-0.00401148457264,0.548309473451,1486,1486,1478,1522,15.3520002365,810,0,0
43.7708878517,0.00846399832517,-0.0188649706542,-0.0324340872467,0.272722452879,-0.0674305781722,10.4662790298,-0.0154303951192,-0.00277711077552,0.548567191439,1486,1486,1478,1522,15.3470001221,803,0,0
43.8693678379,0.0112353814766,-0.0212544724345,-0.0238692071289,1.74189400673,-0.884993612766,5.8466553688,-0.0165665441041,-0.00373942053407,0.549195903295,1486,1486,1478,1522,15.3470001221,781,0,0
43.9717559814,0.0145098334178,-0.0268131233752,-0.0295973420143,0.108613871038,-0.179751887918,9.31150531769,-0.0178510254414,-0.00393777518927,0.550296447803,1486,1486,1479,1521,15.3470001221,807,0,0
44.0699589252,0.0212188903242,-0.03741402179,-0.0466383695602,-0.0215077884495,-0.365395665169,9.67844009399,-0.0187851664665,-0.00375806702297,0.551116225219,1486,1486,1479,1520,15.3369998932,782,0,0
44.1684257984,0.0324967466295,-0.0382599905133,-0.0477958396077,-0.651826560497,0.727827966213,10.9815483093,-0.0202186404557,-0.00548120133742,0.551587622373,1486,1485,1479,1522,15.3369998932,799,0,0
44.2706749439,0.0345208793879,-0.0425013005733,-0.0335915461183,0.855544805527,0.209089711308,6.10151052475,-0.0208375679791,-0.00702701011565,0.552038279213,1486,1486,1479,1522,15.3260002136,768,0,0
44.3691279888,0.0446123704314,-0.041831381619,-0.0363490171731,-1.42587161064,-0.234419092536,10.3856344223,-0.0206571918636,-0.00722813590068,0.55196911473,1492,1606,1479,1522,15.3260002136,764,0,0
44.4715638161,0.0581524111331,-0.0409018993378,-0.0534445606172,0.844986796379,-1.41471362114,6.61977577209,-0.0217953066699,-0.00612359971581,0.551470007963,1546,1829,1479,1522,15.3199996948,830,0,0
44.5696589947,0.110086292028,-0.0115552758798,-0.0286836829036,0.577964961529,-0.391376614571,10.6577425003,-0.024042027742,0.0695656593262,0.550436307212,1547,1898,1479,1522,15.3199996948,763,0,0
44.671984911,0.216882690787,0.0564511455595,-0.00845583342016,1.01166689396,-1.43112301826,8.09616565704,-0.0267534646252,0.146579552616,0.549640866543,1567,1900,1479,1522,15.3199996948,828,0,0
44.7702999115,0.459995657206,0.210237383842,-0.00313133653253,-2.28848648071,-1.52022790909,10.7730646133,-0.0337540661041,0.259526557055,0.549430402834,1574,1901,1479,1520,15.3120002747,793,0,0
44.8726708889,0.670945048332,0.344520628452,-0.0158440060914,-0.143411010504,0.494458645582,11.058599472,-0.0421104706657,0.323677863365,0.550765727669,1572,1901,1479,1522,15.3120002747,812,0,0
44.9711008072,1.02242565155,0.598142266273,-0.0107201999053,-1.14506542683,-0.72364616394,6.79243183136,-0.050000032566,0.371407691067,0.55265777509,1550,1898,1479,1522,15.3000001907,831,0,0
45.0734488964,1.14204990864,0.678365290165,-0.0172217413783,0.105469346046,-0.0549923926592,10.3651237488,-0.0521228329994,0.379931251251,0.553200460033,1535,1898,1479,1522,15.3000001907,824,0,0
45.172025919,1.53325808048,0.954151034355,-0.0102886902168,-1.60152161121,0.484314501286,12.6175928116,-0.0504300234203,0.409328085057,0.555658606847,1527,1900,1479,1522,15.3000001907,801,0,0
45.2705237865,1.86794352531,1.19362068176,-0.0198553670198,-0.147828668356,-1.80484461784,10.8718214035,-0.0391001970529,0.439945200537,0.581112989624,1526,1898,1479,1522,15.2810001373,853,0,0
45.3725647926,2.26100707054,1.45173847675,-0.00440162979066,-0.533125817776,-1.44806408882,11.7817182541,-0.0205189848644,0.473674258418,0.585209527983,1522,1900,1479,1522,15.2810001373,833,0,0
45.4709088802,2.64399290085,1.69709587097,-0.00643071020022,0.727179169655,-0.495513826609,10.0630216599,-0.0105664087631,0.492019068058,0.588990859979,1514,1898,1479,1522,15.2550001144,829,0,0
45.5736508369,2.97411870956,1.90826356411,-0.0237909443676,-1.08299744129,-0.416333556175,13.7076997757,-0.00900837361389,0.509337751991,0.591542614688,1511,1900,1478,1522,15.2550001144,805,0,0
45.6715669632,3.4448993206,2.22671627998,-0.0455178953707,-1.25511717796,1.46118080616,8.56712341309,-0.00324173064384,0.529473671367,0.599415343973,1502,1899,1479,1520,15.2550001144,820,0,0
45.7741878033,3.80576586723,2.45807957649,-0.079064026475,-0.613855659962,0.133664295077,7.800365448,0.00270539344045,0.547389499462,0.604428607588,1497,1897,1479,1522,15.236000061,823,0,0
45.8723609447,4.29006099701,2.78681588173,-0.11270736903,-1.25092732906,-1.65839028358,9.47020435333,0.00978541883579,0.568604628634,0.607161691298,1493,1895,1479,1522,15.236000061,788,0,0
45.975317955,4.64514827728,3.01092600822,-0.153600201011,-1.69280970097,0.299483209848,12.9138202667,0.0125492475193,0.585991268008,0.606301624249,1491,1860,1479,1522,15.236000061,723,0,0
46.072884798,4.99442672729,3.22737503052,-0.234919279814,-2.81888270378,0.133433386683,11.3145837784,0.00625360902186,0.474246522231,0.597561367173,1492,1824,1479,1520,15.2229995728,738,0,0
46.175303936,5.15118980408,3.32705163956,-0.231606200337,-1.86036217213,-1.93692314625,10.8695173264,-0.000266619567804,0.317453052202,0.590809623524,1490,1735,1479,1522,15.2229995728,707,0,0
46.2735669613,5.15930747986,3.33622789383,-0.201263979077,0.0539524778724,-1.44682073593,2.92816281319,-0.00646092408499,0.0217535217462,0.586449865994,1489,1564,1479,1520,15.2399997711,763,0,0
46.375838995,4.91873216629,3.19616174698,-0.161793649197,-2.48154449463,-3.38608360291,13.9231987,-0.0153009463699,-0.253975961402,0.585056531603,1488,1495,1479,1522,15.2399997711,759,0,0
46.4742119312,4.53783512115,2.9577703476,-0.1705006212,-1.39871835709,1.93551373482,14.9264392853,-0.00691136978937,-0.49096699985,0.583371894009,1488,1488,1479,1522,15.2399997711,787,0,0
46.57304883,4.07532262802,2.65182352066,-0.17054232955,3.20775508881,-1.8864440918,4.14514160156,0.00871242546571,-0.595910185119,0.576995973291,1486,1484,1479,1522,15.2569999695,783,0,0
46.6751089096,3.56542134285,2.30486965179,-0.235722407699,1.30145525932,-1.4263125658,13.9120645523,0.025253459102,-0.67100562525,0.56806083704,1486,1486,1479,1522,15.2569999695,908,0,0
46.7735309601,2.72009634972,1.67983686924,-0.35315439105,-0.348732531071,3.7862329483,2.89575052261,0.0401518462485,-0.718193493839,0.558982298488,1492,1485,1479,1522,15.2569999695,896,0,0
46.8755939007,2.17827153206,1.24723041058,-0.428866952658,0.246839791536,-4.69571113586,14.2932281494,-0.00434137279498,-0.67366386481,0.567342103011,1517,1489,1479,1520,15.2250003815,799,0,0
46.9745378494,1.38980543613,0.684968173504,-0.382593899965,0.34846791625,-2.65927147865,10.7265796661,-0.0399961010629,-0.42084636468,0.586623481492,1531,1488,1479,1522,15.2250003815,838,0,0
47.0762410164,1.11754882336,0.498069882393,-0.315723508596,-1.46662998199,-1.71211504936,12.4015159607,-0.0478384559214,-0.291260009258,0.595156186504,1527,1488,1479,1522,15.1770000458,752,0,0
47.1745369434,0.797376334667,0.346984356642,-0.259932368994,-0.435305327177,1.72697269917,7.22487640381,-0.0619195948852,-0.179460489115,0.60053999911,1488,1489,1493,1518,15.1719999313,808,0,0
47.2770879269,0.628283798695,0.290019929409,-0.257661193609,-1.3487944603,-0.812587380409,10.3494567871,-0.0592560666868,-0.1313052334,0.598125842257,1486,1489,1535,1521,15.1719999313,778,0,0
47.3752999306,0.498033225536,0.271827787161,-0.194115504622,-0.986559510231,-1.06335091591,14.7921724319,-0.04680263256,-0.0825058295525,0.592291648694,1486,1486,1572,1521,15.1719999313,971,0,0
47.4775488377,0.346612691879,0.240714743733,0.387840420008,-0.827469527721,-3.55506920815,16.5687179565,-0.00963402440934,-0.0444140633351,0.579406348024,1486,1488,1737,1521,15.154999733,976,0,0
47.5760939121,0.272359669209,0.236182913184,0.809497892857,2.26990365982,2.4647629261,11.7836894989,0.00296396651103,-0.0346123393397,0.573528545314,1486,1488,1902,1521,15.154999733,980,0,0
47.6743888855,0.234293401241,0.202799603343,1.23543536663,3.06631326675,2.6788380146,12.3798666,0.0169177773966,-0.0273355098103,0.568930192038,1486,1488,1902,1518,15.154999733,967,0,0
47.7766499519,0.206594049931,0.127235412598,1.89299416542,-0.360210865736,-2.99403762817,13.2926187515,0.0306417631262,-0.0173838483688,0.564020459412,1486,1488,1902,1521,15.0480003357,971,0,0
47.8756628036,0.21066981554,0.0776226967573,2.30507493019,2.51864647865,-0.0963514149189,13.3941078186,0.0341580684181,-0.0149834428606,0.563027762755,1486,1488,1901,1518,15.0480003357,971,0,0
47.9779119492,0.214823737741,0.0406514331698,2.64577937126,0.00254285987467,2.29005146027,14.1614809036,0.0319283587654,-0.0144711928738,0.563806908096,1486,1488,1901,1521,14.9589996338,982,0,0
48.075884819,0.235730692744,-0.0497107952833,3.31699037552,-0.552020668983,1.1228325367,14.576004982,0.0256647279653,-0.0139415024052,0.56843769318,1486,1488,1901,1521,14.9589996338,983,0,0
48.1786768436,0.238794490695,-0.0877389609814,3.74455165863,-1.48463392258,2.47729992867,14.9310865402,0.0161031634269,-0.0129705730716,0.573100946764,1486,1488,1901,1521,14.8699998856,976,0,0
48.2770957947,0.248229056597,-0.126836374402,4.21328878403,0.24000197649,-0.617926955223,15.6304502487,0.0120883335899,-0.0159166617522,0.577748028634,1486,1488,1901,1521,14.8699998856,976,0,0
48.3790438175,0.246441543102,-0.17400406301,4.75296974182,1.14319312572,1.76375639439,10.8556632996,0.00774080511479,-0.0174875058791,0.580535886557,1486,1488,1901,1520,14.7729997635,927,0,0
48.4774889946,0.237919032574,-0.184930548072,4.88222360611,-1.05063533783,-2.74794459343,13.1123657227,0.00052689596813,-0.020325646443,0.584060818643,1486,1486,1901,1520,14.7729997635,863,0,0
48.5794718266,0.216652065516,-0.202679902315,4.91095066071,1.29612481594,0.0484726056457,8.63929080963,-0.00802708306774,-0.0212216520473,0.583253323885,1486,1488,1901,1521,14.7729997635,883,0,0
48.6779749393,0.202940553427,-0.20731972158,4.90871858597,-1.27245986462,-1.34816849232,12.0380325317,-0.0125725207213,-0.0267463981511,0.579739670857,1486,1486,1900,1520,14.8039999008,892,0,0
48.7762699127,0.190930277109,-0.206417456269,4.90700912476,-0.56861615181,-0.644430875778,9.34507751465,-0.0133457831925,-0.027236108778,0.57883168345,1486,1488,1900,1522,14.8039999008,871,0,0
48.8786540031,0.150938868523,-0.20927709341,4.88673639297,0.302256852388,0.180711135268,8.33255767822,-0.0156201932067,-0.0351709462015,0.572503565127,1486,1488,1898,1522,14.8039999008,893,0,0
48.977137804,0.109764747322,-0.200657084584,4.86461448669,-0.481911033392,-0.312421292067,11.3541784286,-0.0180846172261,-0.0361065801988,0.56617124094,1486,1486,1880,1525,14.8389997482,776,0,0
49.079102993,0.0658151060343,-0.203854322433,4.58145093918,-0.718578398228,0.124854460359,5.41435909271,-0.0174252990531,-0.038563462108,0.563110660578,1486,1488,1775,1523,14.8389997482,635,0,0
49.1775579453,0.0412180498242,-0.200601324439,4.24696445465,0.520694673061,0.363349497318,4.36040496826,-0.0207346269723,-0.0427132290442,0.561062126567,1486,1488,1702,1524,14.8780002594,651,0,0
49.2799987793,0.00918719638139,-0.200424298644,3.68168354034,-0.439739495516,-0.451196938753,6.38768053055,-0.0204239919017,-0.0533269469301,0.555547414667,1486,1488,1617,1523,14.8780002594,645,0,0
49.3784968853,-0.0138306487352,-0.201745510101,3.41210389137,1.31479918957,-0.187454029918,4.12348556519,-0.0211607149893,-0.0541160238241,0.553407383276,1486,1488,1575,1522,14.9870004654,641,0,0
49.4806158543,-0.0464299060404,-0.201205790043,2.82413101196,0.0545574165881,0.298683047295,4.86017274857,-0.0206381899398,-0.0530912347838,0.547372667275,1486,1488,1526,1522,14.9870004654,627,0,0
49.5790197849,-0.0846304818988,-0.202777728438,2.17462992668,-0.593343555927,-0.794942200184,6.23967504501,-0.0194761789355,-0.0448100821547,0.542103507436,1486,1488,1493,1523,15.0839996338,629,0,0
49.6814169884,-0.0963204428554,-0.201585575938,1.81911456585,0.285999387503,0.981106996536,4.0183429718,-0.0206031341982,-0.0353215802136,0.539716870978,1486,1488,1493,1523,15.0839996338,620,0,0
49.7799408436,-0.119453974068,-0.199067190289,1.30044615269,-0.980802416801,0.159830629826,6.34591197968,-0.0225947525566,-0.0276672720027,0.53780277093,1486,1488,1493,1522,15.0839996338,617,0,0
49.8820438385,-0.134675309062,-0.200380980968,0.886185109615,-0.631507992744,-0.388614535332,6.24250078201,-0.0224284008666,-0.0195207869132,0.536541550556,1486,1488,1492,1522,15.1660003662,625,0,0
49.9803049564,-0.152354702353,-0.198644772172,0.310583859682,1.44853651524,0.372244030237,3.84029507637,-0.0257655524497,-0.00369565183269,0.535842184851,1486,1488,1469,1524,15.1660003662,830,0,0
50.0792908669,-0.161963507533,-0.193236798048,-0.00295879552141,-0.90913695097,0.542125046253,8.86121082306,-0.0257113848471,0.00565505535663,0.536467987524,1486,1488,1470,1523,15.1660003662,847,0,0
50.1812548637,-0.166757926345,-0.185716450214,-0.0392366014421,-0.592248976231,-1.57307732105,10.5045881271,-0.0220872148707,0.00648684615253,0.538008883196,1486,1488,1470,1523,15.2150001526,800,0,0
50.2795369625,-0.167431175709,-0.171690657735,-0.0116385407746,1.01691102982,-0.189973145723,11.5207929611,-0.021527288086,0.00511024826467,0.541139695731,1515,1488,1470,1522,15.2150001526,803,0,0
50.3818199635,-0.162277519703,-0.14795987308,-0.0312721543014,0.0596424490213,0.157821342349,7.65500688553,-0.0270503525477,0.0122061995353,0.543305208404,1750,1483,1471,1522,15.1979999542,791,0,0
50.4801609516,-0.203017577529,0.0240268018097,0.0360217615962,0.410078018904,-1.68726837635,9.30260276794,-0.199793746664,0.0431536359658,0.548286248021,1826,1482,1470,1523,15.1979999542,792,0,0
50.5825769901,-0.285909563303,0.220258176327,0.0664096698165,0.353204846382,-0.642618954182,13.6086759567,-0.2722754632,0.0374285521818,0.552232786291,1898,1481,1470,1522,15.1850004196,785,0,0
50.6808688641,-0.387152701616,0.442456185818,0.0743957683444,-0.571822226048,-0.310506433249,11.2044229507,-0.323679948455,0.0307143624749,0.5567514904,1898,1482,1471,1522,15.1850004196,829,0,0
50.7832129002,-0.539251029491,0.716086864471,0.0989229902625,1.60863232613,-0.680865943432,7.69207334518,-0.374766336538,0.0247148885887,0.561529617146,1898,1481,1470,1522,15.1850004196,799,0,0
50.8819029331,-0.762457847595,1.11114859581,0.114410892129,-3.01554822922,-0.394713133574,11.961312294,-0.418003496653,0.018413135177,0.564792143964,1898,1481,1470,1523,15.1599998474,868,0,0
50.9837939739,-0.936512231827,1.42309689522,0.121917456388,1.80316591263,1.23723375797,9.74086284637,-0.438199187421,0.0153103440155,0.565789771486,1898,1483,1470,1523,15.1599998474,825,0,0
51.0822098255,-1.21264314651,1.86571156979,0.137113258243,0.250328779221,-1.72519147396,13.5899648666,-0.468671348628,0.0140254721467,0.565598596232,1898,1481,1471,1521,15.1330003738,829,0,0
51.1806938648,-1.38887107372,2.18704271317,0.121882908046,-1.5044118166,-0.208545207977,13.3975076675,-0.483969260306,0.0121256601439,0.565991018299,1898,1483,1470,1522,15.1330003738,853,0,0
51.2828919888,-1.6071600914,2.55626177788,0.11602461338,2.88325953484,-1.10254406929,9.35676670074,-0.50177231759,0.00848632134179,0.567239308947,1898,1483,1470,1522,15.1330003738,831,0,0
51.3816108704,-1.82749974728,2.90766763687,0.0833297669888,1.35747694969,-0.53490871191,6.77122926712,-0.516136301605,0.00679560305563,0.568352306457,1898,1483,1470,1523,15.1129999161,816,0,0
51.4837348461,-2.12478232384,3.36979055405,0.0471313893795,-1.30118560791,-0.852334022522,11.0013389587,-0.5362651461,0.00700480318649,0.569214881564,1891,1485,1470,1523,15.1129999161,890,0,0
51.5822048187,-2.44845700264,3.8710258007,0.00756721990183,-1.88510727882,1.40803647041,12.2842082977,-0.549046694219,0.0080947492043,0.569707702693,1880,1484,1470,1523,15.0959997177,862,0,0
51.6842558384,-2.67258143425,4.22194433212,-0.0246504098177,-1.03949439526,-1.80534017086,10.3470659256,-0.554861649232,0.00778165581804,0.570685495831,1871,1486,1470,1523,15.0959997177,816,0,0
51.7827069759,-2.92841124535,4.63929224014,-0.083270445466,-3.07870006561,-1.3538724184,7.88275146484,-0.548031934345,0.0107374933464,0.569604826954,1866,1486,1470,1523,15.0959997177,800,0,0
51.8850619793,-3.12237477303,4.93288326263,-0.142010331154,-1.18904531002,-1.1067353487,9.24712085724,-0.481933304905,0.00902370322649,0.572360209188,1847,1488,1470,1523,15.0719995499,819,0,0
51.9833438396,-3.24735021591,5.11521625519,-0.161658197641,0.42587274313,-1.97208762169,8.32200336456,-0.35590238627,0.00935427856154,0.575331994859,1843,1488,1470,1522,15.0719995499,772,0,0
52.0855000019,-3.36368489265,5.28936100006,-0.17494431138,-0.398878335953,0.369732499123,5.42081832886,-0.256213160363,0.00836809553977,0.579200327029,1821,1486,1470,1521,15.0830001831,748,0,0
52.1838078499,-3.3898692131,5.32479763031,-0.207119762897,-0.632895588875,-1.08101475239,14.1938352585,-0.152430627628,0.00899111957115,0.58305111642,1800,1486,1470,1523,15.0830001831,743,0,0
52.2822089195,-3.36719226837,5.26712274551,-0.233298018575,-1.96419656277,-1.27290141582,10.734336853,-0.0312980347601,0.0041692749954,0.587057824141,1752,1490,1470,1523,15.0830001831,765,0,0
52.3851518631,-3.23875045776,5.01926517487,-0.211242765188,-2.85690546036,-0.327260702848,12.7499933243,0.185389658525,-0.020672046969,0.58977022334,1671,1490,1470,1523,15.1169996262,763,0,0
52.4830029011,-3.08696055412,4.76419210434,-0.203458756208,0.0502651669085,-0.105707846582,10.1201448441,0.271473874904,-0.035593908729,0.58806012681,1671,1490,1470,1523,15.1169996262,790,0,0
52.5858209133,-2.74370360374,4.1563129425,-0.188785403967,0.512955129147,-0.396886229515,12.6261367798,0.534278989548,-0.0570837287838,0.584692066936,1528,1483,1471,1522,15.1400003433,819,0,0
52.6841239929,-2.47481536865,3.70156884193,-0.20304608345,-0.271680295467,0.554061174393,11.3390798569,0.626305464245,-0.0515339870544,0.589304354083,1490,1482,1471,1522,15.1400003433,879,0,0
52.7862269878,-2.08626723289,3.04841685295,-0.245826393366,0.634504377842,-1.12449789047,10.9616165161,0.68433458573,-0.0511474589253,0.585990029856,1488,1452,1470,1522,15.1400003433,923,0,0
52.8842999935,-1.67409896851,2.30545759201,-0.342728316784,-2.05153083801,2.62961673737,9.99782276154,0.645469401007,-0.0680521815034,0.564023280073,1487,1435,1470,1523,15.1289997101,915,0,0
52.9867990017,-1.4012928009,1.73983478546,-0.361946254969,-2.4888625145,-1.84651422501,14.8287811279,0.486665404758,-0.0767044902446,0.57215956794,1487,1363,1470,1522,15.0860004425,859,0,0
53.0856289864,-1.21000909805,1.28780591488,-0.284385561943,1.91250765324,1.41105401516,11.3901367188,0.391538454412,-0.0806485553388,0.590621825868,1487,1317,1470,1522,15.0860004425,823,0,0
53.1874718666,-1.0564647913,0.800472617149,-0.206291988492,-1.82043349743,-3.59216809273,12.1500320435,0.27159526885,-0.139404864486,0.594576209657,1488,1235,1470,1522,15.0860004425,787,0,0
53.2857148647,-1.06346476078,0.38280543685,-0.157436773181,0.22425056994,-0.216196969151,10.4734325409,0.182389196364,-0.219171778684,0.588569099976,1490,1102,1471,1522,15.0579996109,799,0,0
53.3880000114,-1.13609027863,0.118241034448,-0.119252212346,-0.169574007392,0.114770844579,8.23118972778,0.14065404905,-0.262297987385,0.585626223192,1488,1099,1470,1523,15.0579996109,841,0,0
53.4869840145,-1.26670110226,-0.134907841682,-0.0897808149457,0.737466514111,0.160882562399,11.7151212692,0.0991424329654,-0.316122768176,0.580832170893,1489,1101,1470,1523,15.0579996109,821,0,0
53.5851619244,-1.45984888077,-0.399555742741,-0.0622269697487,2.1279501915,-0.0806723833084,12.3059215546,0.0724679454289,-0.354088833111,0.575423167391,1489,1101,1470,1523,15.0500001907,831,0,0
53.6875369549,-1.76970386505,-0.750451624393,-0.0483472794294,-1.45940494537,-1.17869544029,12.7353744507,0.0459060063858,-0.40069870414,0.565670319397,1490,1102,1470,1523,15.0500001907,836,0,0
53.7857148647,-2.1454808712,-1.08743047714,-0.0386590622365,1.73521900177,-0.565344154835,8.52089881897,0.0278735496379,-0.444577999351,0.550202455229,1490,1103,1470,1523,15.0469999313,795,0,0
53.887804985,-2.42796421051,-1.32029414177,-0.0415441244841,1.74195623398,-0.217161625624,9.84521579742,0.0223462559496,-0.460936066591,0.541619711482,1491,1102,1471,1522,15.0469999313,840,0,0
53.9865198135,-2.70648002625,-1.53472983837,-0.0459576025605,2.89864635468,-0.0387525334954,7.58639955521,0.0167387827381,-0.481270395314,0.530263674019,1492,1105,1470,1522,15.0469999313,830,0,0
54.0887308121,-3.02195262909,-1.76513624191,-0.0317677073181,1.52644312382,0.414225846529,11.6201782227,0.014562132963,-0.491121252792,0.521055149532,1493,1115,1470,1523,15.0369997025,863,0,0
54.18719697,-3.49497747421,-2.0896191597,-0.00770126003772,-0.914225399494,-0.896994233131,11.7858276367,0.015411740296,-0.508823875629,0.506722213162,1493,1124,1470,1523,15.0369997025,847,0,0
54.2892689705,-3.989798069,-2.41479873657,0.0110436789691,0.0798886045814,-0.175841003656,11.2132616043,0.0166472962037,-0.525335123379,0.495488504013,1493,1149,1470,1522,15.0340003967,839,0,0
54.3875188828,-4.27994823456,-2.60123252869,-0.0373232662678,0.916709244251,-1.57616436481,9.58749294281,0.0189383985579,-0.525338976145,0.49130770748,1493,1180,1471,1522,15.0340003967,803,0,0
54.4897940159,-4.5482378006,-2.77661275864,-0.0983041450381,0.401509404182,0.494408488274,10.0096054077,0.00200487368045,-0.322241500273,0.495712052682,1492,1293,1470,1523,15.0340003967,780,0,0
54.5881078243,-4.60875368118,-2.80871939659,-0.0420986451209,2.10433673859,0.17485076189,11.308924675,-0.0124139008205,-0.0697172792164,0.499797855339,1492,1330,1470,1522,15.0489997864,763,0,0
54.686634779,-4.52697610855,-2.75857686996,0.00639640679583,1.25508534908,0.393639743328,9.2109746933,-0.0255461604558,0.118776540401,0.499991780948,1487,1426,1470,1523,15.0489997864,796,0,0
54.7890369892,-4.16713905334,-2.51506876945,0.0577886030078,3.86105322838,-1.05648124218,8.3139591217,-0.0416443439239,0.383011554225,0.494696819413,1486,1489,1470,1523,15.0699996948,847,0,0
54.8873798847,-3.72317433357,-2.22735214233,0.0576321482658,3.42444324493,-0.479005903006,8.60818767548,-0.047233252895,0.511814409646,0.491391066403,1488,1489,1470,1522,15.0699996948,863,0,0
54.9900078773,-3.17640805244,-1.88952100277,0.0191471781582,-2.0699365139,0.278714865446,13.1451387405,-0.0514825057184,0.599930848952,0.49008409545,1487,1489,1470,1523,15.0699996948,935,0,0
55.0879838467,-2.35570526123,-1.36780047417,0.00794069468975,1.01151919365,-2.28138160706,11.2107477188,-0.0510641881843,0.621201727709,0.495119898255,1486,1488,1470,1522,15.0530004501,855,0,0
55.1902527809,-1.89323508739,-1.08236563206,-0.00449550617486,-0.80984210968,-0.449962705374,14.2024478912,-0.0404092378787,0.540706051965,0.503326072246,1483,1486,1470,1523,15.0530004501,861,0,0
55.2886719704,-1.33480370045,-0.761109411716,0.00139605626464,-0.853519320488,-0.942008256912,12.3329277039,-0.0145733990193,0.38931591848,0.516927892366,1383,1484,1470,1523,15.0530004501,823,0,0
55.3914380074,-1.01519346237,-0.646932899952,0.020083501935,-0.596101999283,-0.5437297225,10.138630867,0.0787579059365,0.313594692418,0.524609189256,1197,1484,1470,1522,15.0229997635,777,0,0
55.4892039299,-0.738107383251,-0.637138426304,0.0165906306356,-0.180617704988,-0.538716197014,11.5032835007,0.154411810526,0.277633636385,0.527633791031,1097,1483,1470,1523,15.0229997635,841,0,0
55.591632843,-0.431596398354,-0.737560451031,0.0360068082809,0.34384393692,-0.345721513033,12.4947042465,0.277245741158,0.20786410125,0.531163628421,1097,1482,1470,1523,15.0129995346,798,0,0
55.6899700165,-0.0643865838647,-0.962088227272,0.0505688339472,-0.621828258038,-0.499566912651,11.4720907211,0.351040850493,0.147249915875,0.533168096544,1097,1482,1470,1523,15.0129995346,832,0,0
55.7927248478,0.249047368765,-1.22751665115,0.0661525949836,-0.552503168583,-0.0239407550544,12.7450141907,0.39633958115,0.103460736722,0.537686666596,1097,1481,1470,1524,15.0050001144,843,0,0
55.8910689354,0.635623276234,-1.65135753155,0.109105333686,-0.184379205108,0.221838012338,9.74430274963,0.422536616947,0.06867611474,0.543908575029,1097,1484,1470,1523,15.0050001144,855,0,0
55.9890809059,0.855468153954,-1.92503201962,0.132822349668,-1.70697999001,2.00918459892,13.3022966385,0.435695419504,0.0548656970075,0.547048098134,1097,1484,1470,1523,15.0050001144,864,0,0
56.0913388729,1.17886435986,-2.34108924866,0.170283600688,-0.647628366947,1.20509529114,14.7582597733,0.45359077545,0.0431006678131,0.549017230365,1097,1485,1470,1523,14.9899997711,831,0,0
56.1900658607,1.44130074978,-2.67456626892,0.189266905189,-1.88202083111,-0.180389165878,14.6663541794,0.471861242245,0.0374253107254,0.547154695899,1097,1484,1470,1523,14.9899997711,871,0,0
56.2921419144,1.61522400379,-2.91595697403,0.205074951053,-3.71744441986,-1.57441103458,17.9639549255,0.478544123252,0.0332771987292,0.54449675008,1097,1484,1470,1523,14.9750003815,876,0,0
56.3903439045,2.00284934044,-3.48697113991,0.264299273491,0.633697271347,0.246144339442,8.92019939423,0.489726752649,0.0288385282663,0.539300369022,1097,1485,1470,1523,14.9750003815,895,0,0
56.4929769039,2.30799484253,-3.91580271721,0.299108237028,-0.754839837551,-0.245613306761,12.2044887543,0.497628704984,0.0278606845955,0.534652193055,1097,1485,1470,1523,14.9750003815,918,0,0
56.5911169052,2.45814800262,-4.15189504623,0.315948396921,-0.583316981792,-0.899046003819,10.3551940918,0.501158638783,0.0285338894487,0.53323343971,1097,1486,1470,1523,14.9750003815,831,0,0
56.6937329769,2.76914668083,-4.61486101151,0.318802505732,-1.61967027187,-0.757125616074,11.2595710754,0.521754509458,0.0303007087783,0.52568915836,1097,1489,1470,1522,14.9329996109,867,0,0
56.7917759418,3.00458836555,-5.00907945633,0.306737631559,-1.18661594391,2.28978490829,12.3367605209,0.528369036921,0.0342280509489,0.522900008111,1097,1489,1470,1522,14.9329996109,875,0,0
56.8942790031,3.20844507217,-5.31625890732,0.276216059923,0.47420924902,1.28198361397,10.6852207184,0.485220932913,0.0381946341955,0.519035624804,1097,1487,1470,1524,14.9329996109,848,0,0
56.9929039478,3.44682335854,-5.69784927368,0.263938337564,0.743073940277,0.935738384724,9.49514198303,0.417970190399,0.0357151398782,0.513042164756,1097,1487,1470,1523,14.9259996414,823,0,0
57.090834856,3.57363557816,-5.89300823212,0.244747266173,-0.242016300559,2.69300889969,12.1143140793,0.360582796543,0.0324251428992,0.507386758158,1097,1487,1470,1523,14.9259996414,775,0,0
57.193379879,3.70381093025,-6.11096048355,0.187268763781,0.21536642313,0.301628679037,9.18921852112,0.302546171017,0.0342385090095,0.50145356008,1097,1486,1470,1523,14.9440002441,757,0,0
57.291467905,3.78129768372,-6.2507648468,0.181113347411,2.15931582451,-0.429099321365,5.49831914902,0.281279142907,0.0336729148279,0.498835044564,1097,1486,1470,1523,14.9440002441,703,0,0
57.3937578201,3.83087444305,-6.33396530151,0.162075445056,-0.439462125301,2.43606853485,8.22465896606,0.250185175142,0.0372042257308,0.494300954372,1097,1488,1470,1523,14.9440002441,775,0,0
57.4923307896,3.87220954895,-6.41062927246,0.158105179667,0.972080886364,-1.06852626801,7.73211479187,0.224437897273,0.0360667052763,0.491168532783,1097,1485,1470,1523,14.9729995728,688,0,0
57.5944077969,3.88938450813,-6.45971298218,0.113662526011,-0.0101614482701,-0.153230383992,8.37764072418,0.0895213223918,0.0275799800895,0.487799946575,1197,1480,1470,1523,14.9729995728,744,0,0
57.6928339005,3.86986374855,-6.43361854553,0.105848476291,2.0879650116,1.43080317974,5.21342277527,0.0411393961074,0.0220775772462,0.48779208203,1255,1482,1470,1523,14.9989995956,784,0,0
57.7951688766,3.70363497734,-6.17550992966,0.156261920929,2.01898598671,-3.22295951843,7.05439329147,-0.207337515282,-0.00644942868703,0.495685104071,1299,1482,1470,1523,14.9989995956,734,0,0
57.8934237957,3.45234870911,-5.80052423477,0.200155109167,-0.349409788847,3.9780421257,8.96144676208,-0.436376429717,-0.0342328682913,0.511531387391,1341,1481,1470,1522,15.0190000534,775,0,0
57.9961559772,3.20065355301,-5.41518259048,0.20270806551,-0.625167965889,1.34900677204,9.97904872894,-0.551234006024,-0.0407160340607,0.521233773574,1385,1481,1470,1523,15.0190000534,823,0,0
58.0943338871,2.68811941147,-4.61917114258,0.155406117439,-0.0549909546971,0.442823082209,13.8990449905,-0.693940751088,-0.0335966847229,0.534946151383,1461,1485,1470,1523,15.0190000534,832,0,0
58.1926109791,2.11409020424,-3.74498987198,0.0689909234643,2.49679374695,1.49256575108,10.1429367065,-0.715782534803,-0.0214027074787,0.5542491386,1489,1486,1470,1522,15.0249996185,899,0,0
58.2950499058,1.75931322575,-3.22394561768,0.0150416232646,1.35893476009,2.72523283958,13.0140485764,-0.691204400468,-0.0186739973919,0.56383644954,1489,1489,1470,1523,15.0249996185,903,0,0
58.3932158947,1.24085474014,-2.39819288254,-0.0212351735681,-0.497044622898,-1.83628082275,11.8094425201,-0.616911467928,-0.00345079309754,0.548954259334,1489,1487,1470,1524,14.9899997711,895,0,0
58.4958779812,0.964650452137,-1.93544793129,-0.0115975700319,-0.0854409858584,-0.345929592848,11.8043956757,-0.499744570962,0.020883131539,0.524669360768,1489,1487,1470,1524,14.9899997711,895,0,0
58.5939228535,0.757519125938,-1.54648339748,-0.0263853278011,-0.00592874130234,2.268887043,6.4267783165,-0.428435375256,0.0250394563778,0.521145385099,1488,1625,1470,1522,14.9899997711,900,0,0
58.6963989735,0.578257977962,-1.04530143738,0.0174218975008,0.197984948754,0.722279369831,12.4356002808,-0.294260009746,0.109276532673,0.50880105779,1485,1755,1470,1523,14.970000267,859,0,0
58.7945690155,0.608147799969,-0.697428107262,0.108858175576,-0.199872076511,0.0881932377815,14.1993665695,-0.22776387712,0.266425905758,0.495445187193,1486,1901,1470,1523,14.970000267,840,0,0
58.8970139027,0.78520989418,-0.32464826107,0.149112761021,-1.52196776867,-1.3359130621,14.8295116425,-0.176865158101,0.380992528677,0.502863725061,1487,1900,1470,1522,14.970000267,815,0,0
58.9953238964,1.0264633894,-0.00284823495895,0.163075968623,0.645303845406,-0.589000821114,11.8730840683,-0.135007488994,0.437855707958,0.523019010489,1488,1901,1470,1522,14.9510002136,832,0,0
59.0977787971,1.43465971947,0.411062687635,0.156571671367,-0.498026967049,0.0810697078705,11.256734848,-0.0787677081079,0.47735567028,0.562100421204,1487,1901,1470,1522,14.9510002136,892,0,0
59.1961839199,1.7544888258,0.69325953722,0.143419623375,2.09063887596,1.40043747425,9.66757011414,-0.0461643054699,0.493344434016,0.588361619219,1488,1901,1471,1522,14.9420003891,848,0,0
59.2984378338,1.98846530914,0.87947499752,0.140553191304,0.177597165108,0.28019875288,9.26806259155,-0.0308662041447,0.503235004969,0.599377202643,1487,1901,1470,1523,14.9420003891,842,0,0
59.396835804,2.36434745789,1.17104351521,0.126350149512,-0.789714694023,-1.25190114975,13.1052446365,-0.0195756467657,0.513776059209,0.608039587367,1486,1901,1470,1523,14.9420003891,856,0,0
59.4955079556,2.78786420822,1.47148823738,0.118813432753,-1.01004815102,0.828672468662,10.8844804764,-0.00772575672859,0.524835959062,0.612158383875,1486,1898,1470,1523,14.9399995804,831,0,0
59.5977728367,3.23433494568,1.77474617958,0.119849331677,-0.946771085262,-1.63839650154,11.7231006622,-0.000125206141655,0.533946490223,0.611742695982,1485,1898,1470,1523,14.9390001297,817,0,0
59.6959350109,3.67516303062,2.07055830956,0.0944760665298,0.159725427628,-1.90828335285,8.35053157806,0.0014519379396,0.552911839991,0.609269018727,1485,1898,1470,1523,14.9390001297,839,0,0
59.7985777855,4.02691030502,2.2950334549,0.0758807882667,-1.33039796352,0.168514117599,11.7338838577,0.000304728010844,0.567262646642,0.606533171417,1483,1895,1470,1523,14.9390001297,847,0,0
59.8964869976,4.39684200287,2.54194951057,0.039523575455,-1.65328013897,1.05137789249,9.46512031555,-0.0041005563811,0.585981934251,0.600514145485,1484,1895,1470,1523,14.9320001602,879,0,0
59.998857975,4.75107717514,2.77127528191,0.0181836318225,-0.384568363428,0.993027806282,12.9074954987,-0.0052426120554,0.598715258516,0.595457613817,1484,1895,1470,1523,14.9320001602,846,0,0
60.097840786,5.08992290497,2.99095010757,-0.00491840578616,0.182844057679,-0.981130957603,12.121257782,-0.00954457050683,0.595518747089,0.590185117651,1485,1894,1470,1523,14.9320001602,826,0,0
60.1993567944,5.48494195938,3.25757622719,-0.0548408776522,-3.73210501671,0.609059810638,11.5548038483,-0.0176119663896,0.516789730648,0.581895633103,1485,1888,1470,1523,14.9219999313,771,0,0
