timestamp,vel_x,vel_y,vel_z,acc_x,acc_y,acc_z,roll,pitch,yaw,rc0,rc1,rc2,rc3,vol,cur_raw,cur,power
49.9803049564,-0.1523547024,-0.1986447722,0.3105838597,1.4485365152,0.3722440302,3.8402950764,-0.0257655524,-0.0036956518,0.5358421849,1486,1488,1469,1524,15.1660003662,830,15.52734375,235.487700999
50.0792908669,-0.1619635075,-0.193236798,-0.0029587955,-0.909136951,0.5421250463,8.8612108231,-0.0257113848,0.0056550554,0.5364679875,1486,1488,1470,1523,15.1660003662,847,16.357421875,248.076666146
50.1812548637,-0.1667579263,-0.1857164502,-0.0392366014,-0.5922489762,-1.5730773211,10.5045881271,-0.0220872149,0.0064868462,0.5380088832,1486,1488,1470,1523,15.2150001526,800,14.0625,213.960939646
50.2795369625,-0.1674311757,-0.1716906577,-0.0116385408,1.0169110298,-0.1899731457,11.5207929611,-0.0215272881,0.0051102483,0.5411396957,1515,1488,1470,1522,15.2150001526,803,14.208984375,216.189699434
50.3818199635,-0.1622775197,-0.1479598731,-0.0312721543,0.059642449,0.1578213423,7.6550068855,-0.0270503525,0.0122061995,0.5433052084,1750,1483,1471,1522,15.1979999542,791,13.623046875,207.043065782
50.4801609516,-0.2030175775,0.0240268018,0.0360217616,0.4100780189,-1.6872683764,9.3026027679,-0.1997937467,0.043153636,0.548286248,1826,1482,1470,1523,15.1979999542,792,13.671875,207.785155624
50.5825769901,-0.2859095633,0.2202581763,0.0664096698,0.3532048464,-0.6426189542,13.6086759567,-0.2722754632,0.0374285522,0.5522327863,1898,1481,1470,1522,15.1850004196,785,13.330078125,202.417241921
50.6808688641,-0.3871527016,0.4424561858,0.0743957683,-0.571822226,-0.3105064332,11.2044229507,-0.3236799485,0.0307143625,0.5567514904,1898,1482,1471,1522,15.1850004196,829,15.478515625,235.04126626
50.7832129002,-0.5392510295,0.7160868645,0.0989229903,1.6086323261,-0.6808659434,7.6920733452,-0.3747663365,0.0247148886,0.5615296171,1898,1481,1470,1522,15.1850004196,799,14.013671875,212.797613302
50.8819029331,-0.7624578476,1.1111485958,0.1144108921,-3.0155482292,-0.3947131336,11.961312294,-0.4180034967,0.0184131352,0.564792144,1898,1481,1470,1523,15.1599998474,868,17.3828125,263.523434847
50.9837939739,-0.9365122318,1.4230968952,0.1219174564,1.8031659126,1.237233758,9.7408628464,-0.4381991874,0.015310344,0.5657897715,1898,1483,1470,1523,15.1599998474,825,15.283203125,231.693357043
51.0822098255,-1.2126431465,1.8657115698,0.1371132582,0.2503287792,-1.725191474,13.5899648666,-0.4686713486,0.0140254721,0.5655985962,1898,1481,1471,1521,15.1330003738,829,15.478515625,234.236382739
51.1806938648,-1.3888710737,2.1870427132,0.121882908,-1.5044118166,-0.208545208,13.3975076675,-0.4839692603,0.0121256601,0.5659910183,1898,1483,1470,1522,15.1330003738,853,16.650390625,251.970367552
51.2828919888,-1.6071600914,2.5562617779,0.1160246134,2.8832595348,-1.1025440693,9.3567667007,-0.5017723176,0.0084863213,0.5672393089,1898,1483,1470,1522,15.1330003738,831,15.576171875,235.714214807
51.3816108704,-1.8274997473,2.9076676369,0.083329767,1.3574769497,-0.5349087119,6.7712292671,-0.5161363016,0.0067956031,0.5683523065,1898,1483,1470,1523,15.1129999161,816,14.84375,224.333592505
51.4837348461,-2.1247823238,3.3697905541,0.0471313894,-1.3011856079,-0.8523340225,11.0013389587,-0.5362651461,0.0070048032,0.5692148816,1891,1485,1470,1523,15.1129999161,890,18.45703125,278.941111733
51.5822048187,-2.4484570026,3.8710258007,0.0075672199,-1.8851072788,1.4080364704,12.2842082977,-0.5490466942,0.0080947492,0.5697077027,1880,1484,1470,1523,15.0959997177,862,17.08984375,257.988276426
51.6842558384,-2.6725814343,4.2219443321,-0.0246504098,-1.0394943953,-1.8053401709,10.3470659256,-0.5548616492,0.0077816558,0.5706854958,1871,1486,1470,1523,15.0959997177,816,14.84375,224.08124581
51.7827069759,-2.9284112454,4.6392922401,-0.0832704455,-3.0787000656,-1.3538724184,7.8827514648,-0.5480319343,0.0107374933,0.569604827,1866,1486,1470,1523,15.0959997177,800,14.0625,212.28749603
51.8850619793,-3.122374773,4.9328832626,-0.1420103312,-1.18904531,-1.1067353487,9.2471208572,-0.4819333049,0.0090237032,0.5723602092,1847,1488,1470,1523,15.0719995499,819,14.990234375,225.932805753
51.9833438396,-3.2473502159,5.1152162552,-0.1616581976,0.4258727431,-1.9720876217,8.3220033646,-0.3559023863,0.0093542786,0.5753319949,1843,1488,1470,1522,15.0719995499,772,12.6953125,191.343744286
52.0855000019,-3.3636848927,5.2893610001,-0.1749443114,-0.398878336,0.3697324991,5.4208183289,-0.2562131604,0.0083680955,0.579200327,1821,1486,1470,1521,15.0830001831,748,11.5234375,173.808009922
52.1838078499,-3.3898692131,5.3247976303,-0.2071197629,-0.6328955889,-1.0810147524,14.1938352585,-0.1524306276,0.0089911196,0.5830511164,1800,1486,1470,1523,15.0830001831,743,11.279296875,170.125636831
52.2822089195,-3.3671922684,5.2671227455,-0.2332980186,-1.9641965628,-1.2729014158,10.734336853,-0.0312980348,0.004169275,0.5870578241,1752,1490,1470,1523,15.0830001831,765,12.353515625,186.328078434
52.3851518631,-3.2387504578,5.0192651749,-0.2112427652,-2.8569054604,-0.3272607028,12.7499933243,0.1853896585,-0.020672047,0.5897702233,1671,1490,1470,1523,15.1169996262,763,12.255859375,185.271821591
52.4830029011,-3.0869605541,4.7641921043,-0.2034587562,0.0502651669,-0.1057078466,10.1201448441,0.2714738749,-0.0355939087,0.5880601268,1671,1490,1470,1523,15.1169996262,790,13.57421875,205.20145977
52.5858209133,-2.7437036037,4.1563129425,-0.188785404,0.5129551291,-0.3968862295,12.6261367798,0.5342789895,-0.0570837288,0.5846920669,1528,1483,1471,1522,15.1400003433,819,14.990234375,226.952153584
52.6841239929,-2.4748153687,3.7015688419,-0.2030460835,-0.2716802955,0.5540611744,11.3390798569,0.6263054642,-0.0515339871,0.5893043541,1490,1482,1471,1522,15.1400003433,879,17.919921875,271.307623339
52.7862269878,-2.0862672329,3.048416853,-0.2458263934,0.6345043778,-1.1244978905,10.9616165161,0.6843345857,-0.0511474589,0.5859900299,1488,1452,1470,1522,15.1400003433,923,20.068359375,303.834967827
52.8842999935,-1.6740989685,2.305457592,-0.3427283168,-2.051530838,2.6296167374,9.9978227615,0.645469401,-0.0680521815,0.5640232801,1487,1435,1470,1523,15.1289997101,915,19.677734375,297.704437655
52.9867990017,-1.4012928009,1.7398347855,-0.361946255,-2.4888625145,-1.846514225,14.8287811279,0.4866654048,-0.0767044902,0.5721595679,1487,1363,1470,1522,15.0860004425,859,16.943359375,255.607527029
53.0856289864,-1.2100090981,1.2878059149,-0.2843855619,1.9125076532,1.4110540152,11.3901367188,0.3915384544,-0.0806485553,0.5906218259,1487,1317,1470,1522,15.0860004425,823,15.185546875,229.089166876
53.1874718666,-1.0564647913,0.8004726171,-0.2062919885,-1.8204334974,-3.5921680927,12.1500320435,0.2715952689,-0.1394048645,0.5945762097,1488,1235,1470,1522,15.0860004425,787,13.427734375,202.570806723
53.2857148647,-1.0634647608,0.3828054369,-0.1574367732,0.2242505699,-0.2161969692,10.4734325409,0.1823891964,-0.2191717787,0.5885691,1490,1102,1471,1522,15.0579996109,799,14.013671875,211.017865641
53.3880000114,-1.1360902786,0.1182410344,-0.1192522123,-0.1695740074,0.1147708446,8.2311897278,0.1406540491,-0.2622979874,0.5856262232,1488,1099,1470,1523,15.0579996109,841,16.064453125,241.898528906
53.4869840145,-1.2667011023,-0.1349078417,-0.0897808149,0.7374665141,0.1608825624,11.7151212692,0.099142433,-0.3161227682,0.5808321709,1489,1101,1470,1523,15.0579996109,821,15.087890625,227.193451161
53.5851619244,-1.4598488808,-0.3995557427,-0.0622269697,2.1279501915,-0.0806723833,12.3059215546,0.0724679454,-0.3540888331,0.5754231674,1489,1101,1470,1523,15.0500001907,831,15.576171875,234.421389689
53.6875369549,-1.7697038651,-0.7504516244,-0.0483472794,-1.4594049454,-1.1786954403,12.7353744507,0.0459060064,-0.4006987041,0.5656703194,1490,1102,1470,1523,15.0500001907,836,15.8203125,238.095706142
53.7857148647,-2.1454808712,-1.0874304771,-0.0386590622,1.7352190018,-0.5653441548,8.520898819,0.0278735496,-0.4445779994,0.5502024552,1490,1103,1470,1523,15.0469999313,795,13.818359375,207.924852566
53.887804985,-2.4279642105,-1.3202941418,-0.0415441245,1.741956234,-0.2171616256,9.8452157974,0.0223462559,-0.4609360666,0.5416197115,1491,1102,1471,1522,15.0469999313,840,16.015625,240.987108275
53.9865198135,-2.7064800263,-1.5347298384,-0.0459576026,2.8986463547,-0.0387525335,7.5863995552,0.0167387827,-0.4812703953,0.530263674,1492,1105,1470,1522,15.0469999313,830,15.52734375,233.63994034
54.0887308121,-3.0219526291,-1.7651362419,-0.0317677073,1.5264431238,0.4142258465,11.6201782227,0.014562133,-0.4911212528,0.5210551495,1493,1115,1470,1523,15.0369997025,863,17.138671875,257.714203886
54.18719697,-3.4949774742,-2.0896191597,-0.00770126,-0.9142253995,-0.8969942331,11.7858276367,0.0154117403,-0.5088238756,0.5067222132,1493,1124,1470,1523,15.0369997025,847,16.357421875,245.966547868
54.2892689705,-3.989798069,-2.4147987366,0.011043679,0.0798886046,-0.1758410037,11.2132616043,0.0166472962,-0.5253351234,0.495488504,1493,1149,1470,1522,15.0340003967,839,15.966796875,240.044830553
54.3875188828,-4.2799482346,-2.6012325287,-0.0373232663,0.9167092443,-1.5761643648,9.5874929428,0.0189383986,-0.5253389761,0.4913077075,1493,1180,1471,1522,15.0340003967,803,14.208984375,213.61787673
54.4897940159,-4.5482378006,-2.7766127586,-0.098304145,0.4015094042,0.4944084883,10.0096054077,0.0020048737,-0.3222415003,0.4957120527,1492,1293,1470,1523,15.0340003967,780,13.0859375,196.733989566
54.5881078243,-4.6087536812,-2.8087193966,-0.0420986451,2.1043367386,0.1748507619,11.308924675,-0.0124139008,-0.0697172792,0.4997978553,1492,1330,1470,1522,15.0489997864,763,12.255859375,184.438425117
54.686634779,-4.5269761086,-2.75857687,0.0063964068,1.2550853491,0.3936397433,9.2109746933,-0.0255461605,0.1187765404,0.4999917809,1487,1426,1470,1523,15.0489997864,796,13.8671875,208.687301725
54.7890369892,-4.1671390533,-2.5150687695,0.057788603,3.8610532284,-1.0564812422,8.3139591217,-0.0416443439,0.3830115542,0.4946968194,1486,1489,1470,1523,15.0699996948,847,16.357421875,246.506342664
54.8873798847,-3.7231743336,-2.2273521423,0.0576321483,3.4244432449,-0.479005903,8.6081876755,-0.0472332529,0.5118144096,0.4913910664,1488,1489,1470,1522,15.0699996948,863,17.138671875,258.279779926
54.9900078773,-3.1764080524,-1.8895210028,0.0191471782,-2.0699365139,0.2787148654,13.1451387405,-0.0514825057,0.599930849,0.4900840955,1487,1489,1470,1523,15.0699996948,935,20.654296875,311.260247603
55.0879838467,-2.3557052612,-1.3678004742,0.0079406947,1.0115191937,-2.2813816071,11.2107477188,-0.0510641882,0.6212017277,0.4951198983,1486,1488,1470,1522,15.0530004501,855,16.748046875,252.108357148
55.1902527809,-1.8932350874,-1.0823656321,-0.0044955062,-0.8098421097,-0.4499627054,14.2024478912,-0.0404092379,0.540706052,0.5033260722,1483,1486,1470,1523,15.0530004501,861,17.041015625,256.518415873
55.2886719704,-1.3348037005,-0.7611094117,0.0013960563,-0.8535193205,-0.9420082569,12.3329277039,-0.014573399,0.3893159185,0.5169278924,1383,1484,1470,1523,15.0530004501,823,15.185546875,228.588043944
55.3914380074,-1.0151934624,-0.6469329,0.0200835019,-0.5961019993,-0.5437297225,10.138630867,0.0787579059,0.3135946924,0.5246091893,1197,1484,1470,1522,15.0229997635,777,12.939453125,194.389401237
55.4892039299,-0.7381073833,-0.6371384263,0.0165906306,-0.180617705,-0.538716197,11.5032835007,0.1544118105,0.2776336364,0.527633791,1097,1483,1470,1523,15.0229997635,841,16.064453125,241.336275498
55.591632843,-0.4315963984,-0.737560451,0.0360068083,0.3438439369,-0.345721513,12.4947042465,0.2772457412,0.2078641013,0.5311636284,1097,1482,1470,1523,15.0129995346,798,13.96484375,209.65419272
55.6899700165,-0.0643865839,-0.9620882273,0.0505688339,-0.621828258,-0.4995669127,11.4720907211,0.3510408505,0.1472499159,0.5331680965,1097,1482,1470,1523,15.0129995346,832,15.625,234.578117728
55.7927248478,0.2490473688,-1.2275166512,0.066152595,-0.5525031686,-0.0239407551,12.7450141907,0.3963395812,0.1034607367,0.5376866666,1097,1481,1470,1524,15.0050001144,843,16.162109375,242.512453021
55.8910689354,0.6356232762,-1.6513575316,0.1091053337,-0.1843792051,0.2218380123,9.7443027496,0.4225366169,0.0686761147,0.543908575,1097,1484,1470,1523,15.0050001144,855,16.748046875,251.304445275
55.9890809059,0.855468154,-1.9250320196,0.1328223497,-1.70697999,2.0091845989,13.3022966385,0.4356954195,0.054865697,0.5470480981,1097,1484,1470,1523,15.0050001144,864,17.1875,257.898439466
56.0913388729,1.1788643599,-2.3410892487,0.1702836007,-0.6476283669,1.2050952911,14.7582597733,0.4535907755,0.0431006678,0.5490172304,1097,1485,1470,1523,14.9899997711,831,15.576171875,233.486812841
56.1900658607,1.4413007498,-2.6745662689,0.1892669052,-1.8820208311,-0.1803891659,14.6663541794,0.4718612422,0.0374253107,0.5471546959,1097,1484,1470,1523,14.9899997711,871,17.529296875,262.764156144
56.2921419144,1.6152240038,-2.915956974,0.2050749511,-3.7174444199,-1.5744110346,17.9639549255,0.4785441233,0.0332771987,0.5444967501,1097,1484,1470,1523,14.9750003815,876,17.7734375,266.157233343
56.3903439045,2.0028493404,-3.4869711399,0.2642992735,0.6336972713,0.2461443394,8.9201993942,0.4897267526,0.0288385283,0.539300369,1097,1485,1470,1523,14.9750003815,895,18.701171875,280.050055963
56.4929769039,2.3079948425,-3.9158027172,0.299108237,-0.7548398376,-0.2456133068,12.2044887543,0.497628705,0.0278606846,0.5346521931,1097,1485,1470,1523,14.9750003815,918,19.82421875,296.867683344
56.5911169052,2.4581480026,-4.1518950462,0.3159483969,-0.5833169818,-0.8990460038,10.3551940918,0.5011586388,0.0285338894,0.5332334397,1097,1486,1470,1523,14.9750003815,831,15.576171875,233.25317977
56.6937329769,2.7691466808,-4.6148610115,0.3188025057,-1.6196702719,-0.7571256161,11.2595710754,0.5217545095,0.0303007088,0.5256891584,1097,1489,1470,1522,14.9329996109,867,17.333984375,258.848381927
56.7917759418,3.0045883656,-5.0090794563,0.3067376316,-1.1866159439,2.2897849083,12.3367605209,0.5283690369,0.0342280509,0.5229000081,1097,1489,1470,1522,14.9329996109,875,17.724609375,264.6815849
56.8942790031,3.2084450722,-5.3162589073,0.2762160599,0.474209249,1.281983614,10.6852207184,0.4852209329,0.0381946342,0.5190356248,1097,1487,1470,1524,14.9329996109,848,16.40625,244.994524866
56.9929039478,3.4468233585,-5.6978492737,0.2639383376,0.7430739403,0.9357383847,9.495141983,0.4179701904,0.0357151399,0.5130421648,1097,1487,1470,1523,14.9259996414,823,15.185546875,226.659467211
57.090834856,3.5736355782,-5.8930082321,0.2447472662,-0.2420163006,2.6930088997,12.1143140793,0.3605827965,0.0324251429,0.5073867582,1097,1487,1470,1523,14.9259996414,775,12.841796875,191.676655551
57.193379879,3.7038109303,-6.1109604836,0.1872687638,0.2153664231,0.301628679,9.1892185211,0.302546171,0.034238509,0.5014535601,1097,1486,1470,1523,14.9440002441,757,11.962890625,178.77344042
57.291467905,3.7812976837,-6.2507648468,0.1811133474,2.1593158245,-0.4290993214,5.498319149,0.2812791429,0.0336729148,0.4988350446,1097,1486,1470,1523,14.9440002441,703,9.326171875,139.370314777
57.3937578201,3.8308744431,-6.3339653015,0.1620754451,-0.4394621253,2.4360685349,8.2246589661,0.2501851751,0.0372042257,0.4943009544,1097,1488,1470,1523,14.9440002441,775,12.841796875,191.907815635
57.4923307896,3.872209549,-6.4106292725,0.1581051797,0.9720808864,-1.068526268,7.7321147919,0.2244378973,0.0360667053,0.4911685328,1097,1485,1470,1523,14.9729995728,688,8.59375,128.674215079
57.5944077969,3.8893845081,-6.4597129822,0.113662526,-0.0101614483,-0.153230384,8.3776407242,0.0895213224,0.0275799801,0.4877999466,1197,1480,1470,1523,14.9729995728,744,11.328125,169.616010786
57.6928339005,3.8698637486,-6.4336185455,0.1058484763,2.0879650116,1.4308031797,5.2134227753,0.0411393961,0.0220775772,0.487792082,1255,1482,1470,1523,14.9989995956,784,13.28125,199.205463379
57.7951688766,3.7036349773,-6.1755099297,0.1562619209,2.0189859867,-3.2229595184,7.0543932915,-0.2073375153,-0.0064494287,0.4956851041,1299,1482,1470,1523,14.9989995956,734,10.83984375,162.586812023
57.8934237957,3.4523487091,-5.8005242348,0.2001551092,-0.3494097888,3.9780421257,8.9614467621,-0.4363764297,-0.0342328683,0.5115313874,1341,1481,1470,1522,15.0190000534,775,12.841796875,192.870947951
57.9961559772,3.200653553,-5.4151825905,0.2027080655,-0.6251679659,1.349006772,9.9790487289,-0.551234006,-0.0407160341,0.5212337736,1385,1481,1470,1523,15.0190000534,823,15.185546875,228.071729327
58.0943338871,2.6881194115,-4.6191711426,0.1554061174,-0.0549909547,0.4428230822,13.8990449905,-0.6939407511,-0.0335966847,0.5349461514,1461,1485,1470,1523,15.0190000534,832,15.625,234.671875834
58.1926109791,2.1140902042,-3.744989872,0.0689909235,2.496793747,1.4925657511,10.1429367065,-0.7157825348,-0.0214027075,0.5542491386,1489,1486,1470,1522,15.0249996185,899,18.896484375,283.919670525
58.2950499058,1.7593132258,-3.2239456177,0.0150416233,1.3589347601,2.7252328396,13.0140485764,-0.6912044005,-0.0186739974,0.5638364495,1489,1489,1470,1523,15.0249996185,903,19.091796875,286.854240763
58.3932158947,1.2408547401,-2.3981928825,-0.0212351736,-0.4970446229,-1.8362808228,11.8094425201,-0.6169114679,-0.0034507931,0.5489542593,1489,1487,1470,1524,14.9899997711,895,18.701171875,280.330562126
58.4958779812,0.9646504521,-1.9354479313,-0.01159757,-0.0854409859,-0.3459295928,11.8043956757,-0.499744571,0.0208831315,0.5246693608,1489,1487,1470,1524,14.9899997711,895,18.701171875,280.330562126
58.5939228535,0.7575191259,-1.5464833975,-0.0263853278,-0.0059287413,2.268887043,6.4267783165,-0.4284353753,0.0250394564,0.5211453851,1488,1625,1470,1522,14.9899997711,900,18.9453125,283.990230038
58.6963989735,0.578257978,-1.0453014374,0.0174218975,0.1979849488,0.7222793698,12.4356002808,-0.2942600097,0.1092765327,0.5088010578,1485,1755,1470,1523,14.970000267,859,16.943359375,253.642094368
58.7945690155,0.6081478,-0.6974281073,0.1088581756,-0.1998720765,0.0881932378,14.1993665695,-0.2277638771,0.2664259058,0.4954451872,1486,1901,1470,1523,14.970000267,840,16.015625,239.753910526
58.8970139027,0.7852098942,-0.3246482611,0.149112761,-1.5219677687,-1.3359130621,14.8295116425,-0.1768651581,0.3809925287,0.5028637251,1487,1900,1470,1522,14.970000267,815,14.794921875,221.479984419
58.9953238964,1.0264633894,-0.002848235,0.1630759686,0.6453038454,-0.5890008211,11.8730840683,-0.135007489,0.437855708,0.5230190105,1488,1901,1470,1522,14.9510002136,832,15.625,233.609378337
59.0977787971,1.4346597195,0.4110626876,0.1565716714,-0.498026967,0.0810697079,11.256734848,-0.0787677081,0.4773556703,0.5621004212,1487,1901,1470,1522,14.9510002136,892,18.5546875,277.411136776
59.1961839199,1.7544888258,0.6932595372,0.1434196234,2.090638876,1.4004374743,9.6675701141,-0.0461643055,0.493344434,0.5883616192,1488,1901,1471,1522,14.9420003891,848,16.40625,245.142193884
59.2984378338,1.9884653091,0.8794749975,0.1405531913,0.1775971651,0.2801987529,9.2680625916,-0.0308662041,0.503235005,0.5993772026,1487,1901,1470,1523,14.9420003891,842,16.11328125,240.764654707
59.396835804,2.3643474579,1.1710435152,0.1263501495,-0.789714694,-1.2519011498,13.1052446365,-0.0195756468,0.5137760592,0.6080395874,1486,1901,1470,1523,14.9420003891,856,16.796875,250.978912786
59.4955079556,2.7878642082,1.4714882374,0.1188134328,-1.010048151,0.8286724687,10.8844804764,-0.0077257567,0.5248359591,0.6121583839,1486,1898,1470,1523,14.9399995804,831,15.576171875,232.708001277
59.5977728367,3.2343349457,1.7747461796,0.1198493317,-0.9467710853,-1.6383965015,11.7231006622,-0.0001252061,0.5339464902,0.611742696,1485,1898,1470,1523,14.9390001297,817,14.892578125,222.480226541
59.6959350109,3.6751630306,2.0705583096,0.0944760665,0.1597254276,-1.9082833529,8.3505315781,0.0014519379,0.55291184,0.6092690187,1485,1898,1470,1523,14.9390001297,839,15.966796875,238.527980587
59.7985777855,4.026910305,2.2950334549,0.0758807883,-1.3303979635,0.1685141176,11.7338838577,0.000304728,0.5672626466,0.6065331714,1483,1895,1470,1523,14.9390001297,847,16.357421875,244.363527512
59.8964869976,4.3968420029,2.5419495106,0.0395235755,-1.653280139,1.0513778925,9.4651203156,-0.0041005564,0.5859819343,0.6005141455,1484,1895,1470,1523,14.9320001602,879,17.919921875,267.580276308
59.998857975,4.7510771751,2.7712752819,0.0181836318,-0.3845683634,0.9930278063,12.9074954987,-0.0052426121,0.5987152585,0.5954576138,1484,1895,1470,1523,14.9320001602,846,16.30859375,243.519924488
60.097840786,5.089922905,2.9909501076,-0.0049184058,0.1828440577,-0.9811309576,12.121257782,-0.0095445705,0.5955187471,0.5901851177,1485,1894,1470,1523,14.9320001602,826,15.33203125,228.937893081
60.1993567944,5.4849419594,3.2575762272,-0.0548408777,-3.7321050167,0.6090598106,11.5548038483,-0.0176119664,0.5167897306,0.5818956331,1485,1888,1470,1523,14.9219999313,771,12.646484375,188.710838975
60.2979609966,5.7465791702,3.4395029545,-0.0409539044,-2.6857578754,-2.2066760063,9.5550384522,-0.0215984224,0.396032509,0.5753408899,1485,1847,1470,1522,14.9219999313,736,10.9375,163.209374249
60.4004650116,5.8411536217,3.5079717636,-0.0445698798,-0.5491642952,0.3010486662,5.5825591087,-0.0252020651,0.2407377141,0.57351404,1486,1800,1470,1523,14.9219999313,711,9.716796875,144.994042301
60.4988307953,5.8171377182,3.507506609,-0.0157703292,-0.8898270726,-0.6982197762,13.1731586456,-0.0258546175,0.0599652481,0.5747234362,1487,1717,1470,1523,14.954000473,709,9.619140625,143.844633456
60.5972819328,5.5281019211,3.3478088379,0.0103649255,2.1097002029,-0.3658233881,3.8203585148,-0.0336700318,-0.2537709606,0.5817341908,1488,1619,1470,1522,14.954000473,747,11.474609375,171.591314021
60.6994018555,5.1872134209,3.1606814861,0.0338996202,0.4692278206,-0.4413169622,10.8954935074,-0.0320348065,-0.4511662167,0.586253389,1489,1557,1470,1522,15.0030002594,705,9.423828125,141.385695804
60.7979857922,4.4981775284,2.7531452179,0.0255929623,0.5433282256,0.8166491985,10.9320659637,-0.0268677832,-0.6373247134,0.5823358292,1488,1488,1470,1522,15.0030002594,729,10.595703125,158.967336733
60.900015831,3.979667902,2.4344468117,-0.0365158953,-0.6846815944,0.1209740117,12.8132190704,-0.016978055,-0.7120482088,0.5773344851,1486,1488,1470,1523,15.0410003662,812,14.6484375,220.327153802
60.99888587,3.3796718121,2.0538761616,-0.105699867,-1.40500319,0.5531778336,14.3801326752,-0.0075792104,-0.7469645864,0.5736856663,1486,1485,1470,1524,15.0410003662,887,18.310546875,275.408942252
61.1005589962,2.5131311417,1.4695856571,-0.2524588108,3.5559782982,1.2993372679,5.3473191261,0.0189654817,-0.7608022794,0.5725238758,1486,1486,1470,1523,15.0410003662,876,17.7734375,267.330279946
61.1987669468,1.6362131834,0.845705092,-0.3147425354,-3.150551796,-2.6948685646,15.9823331833,-0.0075590075,-0.6008506226,0.5872859936,1486,1486,1470,1523,15.0170001984,920,19.921875,299.166800828
61.301514864,1.2001932859,0.5740480423,-0.2478617132,-3.7226874828,-4.3474030495,17.796705246,-0.0304600398,-0.3841652487,0.5965231157,1493,1485,1470,1523,15.0170001984,866,17.28515625,259.571194836
61.3996329308,0.9332136512,0.3977099955,-0.1559006274,-0.0062438482,-3.8467218876,9.3970098496,-0.0364573834,-0.2632033105,0.6028415933,1514,1485,1470,1523,14.9670000076,809,14.501953125,217.050732532
61.5019259453,0.7471101284,0.2957825065,-0.1213576868,1.7994450331,0.472636193,8.0767211914,-0.0376036152,-0.1770673463,0.6096638318,1800,1484,1470,1523,14.9670000076,787,13.427734375,200.972900493
61.6002810001,0.4918679893,0.2795390487,-0.0879698768,-1.2321230173,0.799077332,12.1641149521,-0.1739857658,-0.0856699156,0.6156478817,1898,1484,1470,1523,14.9670000076,837,15.869140625,237.513427855
61.6985759735,0.3064057231,0.4038708806,-0.050272733,-0.998601675,-1.913874507,10.1456441879,-0.3193790403,-0.0451937957,0.614523397,1898,1491,1471,1522,14.9709997177,811,14.599609375,218.570747832
61.8009288311,-0.0061973338,0.7238688469,-0.0480915159,0.4573340118,-0.6149705648,9.7136240006,-0.4505458991,-0.0072595395,0.6098735887,1898,1489,1470,1523,14.9709997177,862,17.08984375,255.852045957
61.8993809223,-0.1505912393,0.8993761539,-0.0411834382,-1.7218930721,-2.8936171532,14.8044061661,-0.4655131043,-0.0004102345,0.6077920852,1898,1488,1470,1522,14.9709997177,867,17.333984375,259.507075185
62.001718998,-0.6112990379,1.4982185364,-0.0323660709,-1.0615882874,-0.2606921792,11.9279222488,-0.4925048228,0.0177074109,0.5967715424,1898,1489,1470,1523,14.970000267,870,17.48046875,261.682621855
62.1003007889,-0.8394834995,1.807800293,-0.013691525,1.5691131353,-1.0295461416,12.9899682999,-0.4965158753,0.0194484666,0.5917725346,1898,1489,1470,1523,14.970000267,839,15.966796875,239.022953482
62.2028617859,-1.1781384945,2.2998776436,0.0123608988,-1.6376165152,-0.0005392542,10.9398012161,-0.50941698,0.0206839323,0.5800030744,1898,1489,1470,1523,14.9530000687,757,11.962890625,178.881104337
62.3007259369,-1.397983551,2.6094875336,-0.0008822355,0.6355345845,-1.1004554033,10.6870241165,-0.5123066487,0.0199850968,0.5765763677,1898,1489,1471,1522,14.9530000687,855,16.748046875,250.433546072
62.4035348892,-1.626016736,2.9411695004,0.0078807054,-2.2796566486,-0.1037116721,16.3403186798,-0.527978461,0.0194889122,0.5675855834,1898,1489,1470,1523,14.9399995804,845,16.259765625,242.920891615
62.5017948151,-1.8436175585,3.2552986145,-0.0201058462,-2.112531662,-1.4536657333,11.3072719574,-0.5377929113,0.0212940146,0.5625095603,1898,1489,1470,1523,14.9399995804,879,17.919921875,267.723625293
62.6043348312,-2.1498241425,3.7313640118,-0.0476616956,-2.5374186039,0.1335241497,12.8615350723,-0.5545220688,0.0206179831,0.5554449113,1898,1489,1470,1523,14.9399995804,871,17.529296875,261.887687957
62.7027080059,-2.4308564663,4.1582994461,-0.0791586041,-0.2902252078,0.4581027627,13.7378730774,-0.5625138453,0.0192572705,0.55339372,1898,1489,1470,1523,14.9499998093,863,17.138671875,256.223141263
62.8045549393,-2.7436430454,4.6325206757,-0.0979507044,0.0065769125,-1.5659077168,14.5110692978,-0.5765314183,0.0191176963,0.5546700386,1898,1489,1470,1522,14.9499998093,847,16.357421875,244.543453912
62.9027979374,-3.0044071674,5.0109529495,-0.1771717668,-1.2786078453,-1.7633590698,12.9053249359,-0.5912688592,0.0217707544,0.5563377666,1898,1489,1470,1523,14.9409999847,859,16.943359375,253.150732163
63.0011219978,-3.2673921585,5.4278407097,-0.2579371035,-0.7366062403,-1.9834861755,14.440454483,-0.5369742298,0.0260722623,0.5617586207,1898,1489,1471,1521,14.9409999847,832,15.625,233.453124761
63.1038258076,-3.3514919281,5.5489993095,-0.2680814862,-1.254155755,-2.7521018982,9.2607917786,-0.4986749404,0.0279311983,0.5648279237,1898,1489,1470,1522,14.9409999847,775,12.841796875,191.869286913
63.2019469738,-3.5862915516,5.9037976265,-0.2752252221,3.3531079292,-1.7269830704,-0.0248569101,-0.405840332,0.0266308558,0.5760803896,1898,1488,1470,1523,14.9549999237,771,12.646484375,189.128172863
63.3045358658,-3.7303862572,6.0968689919,-0.2766137123,-1.066275239,-2.8263876438,6.9518260956,-0.3478336382,0.0287593211,0.5838553147,1898,1488,1470,1522,14.9549999237,775,12.841796875,192.049071286
63.4028789997,-3.8290588856,6.2354812622,-0.2583897114,-2.3084623814,-0.9525251985,5.3694663048,-0.3123277293,0.0279832081,0.5900122394,1898,1488,1470,1523,14.9790000916,752,11.71875,175.535157323
63.5051620007,-3.9342665672,6.3514704704,-0.2492213398,-1.6321048737,-0.2329584658,13.4417209625,-0.2777133645,0.0295226207,0.5993609195,1898,1489,1470,1521,14.9790000916,758,12.01171875,179.923536257
63.6032319069,-3.9774003029,6.4055509567,-0.2544367313,0.4844589233,-3.8434307575,13.3600320816,-0.2616468211,0.0288558952,0.6055559669,1898,1489,1470,1523,14.9790000916,739,11.083984375,166.027002968
63.7056570053,-4.0587477684,6.4795985222,-0.2577623129,2.9724962711,-3.3612070084,8.0239028931,-0.2429309125,0.0357492048,0.6144747777,1898,1489,1470,1523,15.0030002594,790,13.57421875,203.654007427
63.8039009571,-4.0988206863,6.5197749138,-0.2342862338,-2.8701722622,-2.4195301533,16.4751739502,-0.2216046507,0.0350632442,0.6228649572,1898,1488,1470,1523,15.0030002594,798,13.96484375,209.514554404
63.9062049389,-4.1435012817,6.5657896996,-0.2050490677,-2.0336141586,-4.2599930763,7.796394825,-0.2108324342,0.0334743186,0.6289663493,1898,1489,1471,1521,15.0229997635,759,12.060546875,181.185592851
64.0044360161,-4.1633944511,6.5864200592,-0.2268872261,-3.1293013096,0.3680210114,10.9829492569,-0.1965763548,0.0353085755,0.6370476866,1898,1488,1471,1521,15.0229997635,743,11.279296875,169.448874286
64.1028678417,-4.1888856888,6.596391201,-0.1599075049,1.2777460814,-3.359306097,4.060403347,-0.1897536476,0.0375335816,0.6402036766,1898,1488,1470,1523,15.0229997635,769,12.548828125,188.521041954
64.206319809,-4.1964688301,6.5985593796,-0.1291698068,-2.0256533623,0.6130723357,8.8016271591,-0.1877200795,0.0385077674,0.6419812883,1898,1488,1471,1522,15.0489997864,791,13.623046875,205.013229512
64.3036258221,-4.1940264702,6.639752388,-0.1396942139,-1.1002490521,-2.0860788822,1.7564657927,-0.1877980566,0.0413380756,0.6417912236,1898,1488,1470,1522,15.0489997864,787,13.427734375,202.073971741
64.4062860012,-4.1995100975,6.652217865,-0.1170400605,2.6563947201,-5.8761310577,14.0154428482,-0.178166838,0.0407467026,0.6395000256,1898,1488,1470,1522,15.0489997864,765,12.353515625,185.908054002
64.5045809746,-4.2189979553,6.643966198,-0.1100808606,-1.8219226599,-1.8126974106,10.7513866425,-0.1784003139,0.0423059028,0.6344188709,1898,1488,1470,1523,15.0679998398,723,10.302734375,155.241599912
64.6069738865,-4.2177038193,6.6560206413,-0.1057380363,1.9508082867,0.4131129682,2.8316376209,-0.1767734188,0.0446528119,0.6303385728,1892,1489,1471,1522,15.0679998398,762,12.20703125,183.935544919
64.7049620152,-4.212076664,6.6468009949,-0.1069075316,1.8301610947,-1.6281968355,5.558927536,-0.1614824864,0.0444106989,0.6276078881,1871,1490,1470,1522,15.0900001526,771,12.646484375,190.835451149
64.8074967861,-4.1679334641,6.5730762482,-0.0486977175,2.8374347687,-3.6809670925,10.2403154373,-0.0730307156,0.0358392852,0.622738177,1871,1490,1470,1522,15.0900001526,758,12.01171875,181.25683777
64.9059829712,-4.0791444778,6.4573755264,-0.0394901708,-0.5223571658,2.3819401264,6.6755509377,0.0301361752,0.023835602,0.6178023041,1770,1491,1470,1522,15.1029996872,757,11.962890625,180.675533367
65.0084199905,-3.9500153065,6.2441492081,0.0120806182,-1.556478262,1.068333149,10.5984773636,0.1653459083,0.0028096239,0.6100619147,1710,1493,1470,1523,15.1029996872,791,13.623046875,205.748872692
65.1064369678,-3.6648011208,5.7550282478,0.1067297384,2.6624350548,-1.5748599768,5.7224726677,0.3960937391,-0.0217330616,0.592366266,1580,1495,1471,1522,15.1000003815,758,12.01171875,181.376957707
65.2052328587,-3.219899416,5.0681519508,0.1390406638,1.6204993725,-0.8720020056,10.5212879181,0.5726632136,-0.0112625297,0.590262299,1514,1486,1470,1524,15.1000003815,791,13.623046875,205.70801301
65.3070409298,-2.8831129074,4.5628013611,0.1088886559,0.2769972682,0.367020905,12.1553993225,0.6454742698,-0.0115741516,0.5826651591,1486,1486,1470,1523,15.1000003815,855,16.748046875,252.895514202
65.4055478573,-2.3336207867,3.7009558678,0.0881184787,-0.8676577806,0.4386965632,10.9694576263,0.7028988287,-0.0172558123,0.5552507684,1486,1484,1470,1523,15.0920000076,887,18.310546875,276.342773577
65.5078887939,-2.1139109135,3.3423564434,0.0519230887,1.0236697197,0.1098480448,15.2359657288,0.696833099,-0.020466199,0.5473344045,1486,1484,1470,1521,15.0920000076,915,19.677734375,296.976367337
65.6061248779,-1.6476997137,2.5163826942,0.0173638426,0.5680209398,-0.0821622089,13.2738952637,0.6077909925,-0.0313279421,0.5354414278,1486,1483,1471,1523,15.031999588,739,11.083984375,166.614448558
65.7085499763,-1.3491721153,2.004275322,0.0251706056,-0.418771863,-0.3462563753,10.5593204498,0.5126149787,-0.0182294392,0.5596684361,1486,1482,1470,1523,15.031999588,852,16.6015625,249.55468066
65.8068189621,-0.990627408,1.4574404955,0.1121350676,2.41654706,-0.6950107217,7.0893030167,0.3740936478,0.0228575857,0.5979139925,1486,1483,1470,1523,14.9759998322,850,16.50390625,247.162497231
65.909348011,-0.6623899341,1.0693901777,0.1740673929,0.3311270773,-0.4738264978,10.2770309448,0.2583337139,0.0483051608,0.606117303,1486,1481,1470,1523,14.9759998322,847,16.357421875,244.968747255
66.0076069832,-0.4938286245,0.8987033367,0.2080623955,1.364137888,-0.2860934138,8.7332210541,0.2047444496,0.0490681247,0.597444733,1490,1431,1471,1522,14.9759998322,774,12.79296875,191.587497853
66.1098768711,-0.3651162982,0.7746984363,0.2404876798,0.7076665759,1.0797101259,9.3278465271,0.1502059501,0.03751023,0.5793755707,1491,1353,1470,1523,14.9739999771,705,9.423828125,141.112402128
66.2084047794,-0.3084527552,0.6287822723,0.2737847567,0.7115045786,-0.9369978309,8.9026098251,0.11749358,-0.0398895664,0.5574549355,1494,1183,1470,1522,14.9739999771,830,15.52734375,232.506444957
66.3106169701,-0.4003618956,0.3973962367,0.2687838972,0.756405592,-0.6146935225,12.0815725327,0.0914765997,-0.244640594,0.5214685971,1493,1115,1470,1522,14.9739999771,840,16.015625,239.817968383
66.4089608192,-0.7365493774,0.028960377,0.2963834405,0.4009454548,-0.6690078974,10.9708309174,0.0714214283,-0.3890880647,0.4973935927,1494,1099,1470,1524,14.9770002365,803,14.208984375,212.807962345
66.5071308613,-0.8677380681,-0.0928776637,0.2972614169,-0.6595283747,0.1836669296,11.0141582489,0.0654666482,-0.4115693826,0.4932040238,1494,1099,1470,1523,14.9770002365,811,14.599609375,218.658353062
66.6098430157,-1.2286939621,-0.3954787552,0.3020465672,-1.0868399143,0.6477738619,10.8266601562,0.0561161068,-0.443801829,0.4874735493,1494,1099,1470,1522,14.9770002365,856,16.796875,251.566800847
66.7079699039,-1.6013038158,-0.6908712387,0.332152307,1.0297942162,-0.0429788046,9.8242959976,0.0477355807,-0.4598083407,0.484622916,1494,1100,1470,1523,14.9770002365,832,15.625,234.015628695
66.8102347851,-2.0221877098,-1.0039491653,0.3435813487,-0.9741084576,0.9532341361,12.2531785965,0.042206243,-0.4749493447,0.4827854261,1494,1100,1470,1524,14.9770002365,848,16.40625,245.71641013
66.9085838795,-2.3463609219,-1.2317829132,0.3441317976,-0.2029568702,-0.1670808941,10.6639261246,0.0393999403,-0.4881561615,0.4833382594,1494,1099,1470,1523,14.9560003281,799,14.013671875,209.58848116
67.0110218525,-2.8511064053,-1.5751913786,0.3539064825,0.3357245028,-0.9158200622,10.9476089478,0.0353554735,-0.5020977016,0.4876463674,1493,1100,1470,1523,14.9560003281,791,13.623046875,203.746293532
67.1091887951,-3.1306362152,-1.7662893534,0.353751123,-0.2587835193,1.4237724543,10.2051877975,0.0308400049,-0.5173870671,0.4923838593,1494,1100,1471,1522,14.9460000992,846,16.30859375,243.748243805
67.2122149467,-3.4617984295,-1.987555027,0.3420653939,0.3511035144,0.1783841252,10.7017822266,0.0288895099,-0.5278944632,0.4953400137,1493,1102,1470,1523,14.9460000992,847,16.357421875,244.478028966
67.3101468086,-3.930380106,-2.2957949638,0.3415875733,3.2794830799,-1.2291628122,9.1940317154,0.0240093943,-0.5407520117,0.4995775547,1493,1102,1470,1523,14.9460000992,831,15.576171875,232.801466389
67.4123868942,-4.4619774818,-2.6419124603,0.3578950167,0.9647440314,1.0576541424,9.4292488098,0.0255451446,-0.5517653395,0.5019434076,1493,1102,1470,1523,14.9329996109,832,15.625,233.32811892
67.5108909607,-4.8336257935,-2.8941469193,0.351896584,2.5655045509,-0.2343945056,8.0685930252,0.0266856074,-0.5642950145,0.5014240307,1493,1104,1470,1523,14.9329996109,855,16.748046875,250.098577468
67.6094110012,-5.2215309143,-3.1429288387,0.2967223227,-0.2669458985,-1.727211237,12.3203516006,0.0224885965,-0.5328648757,0.5016812394,1494,1102,1470,1522,14.9270000458,815,14.794921875,220.843799506
67.7113888264,-5.3587827683,-3.2304420471,0.3046994805,1.9639037848,0.6954481602,9.0512418747,0.016845234,-0.4851468528,0.5029932019,1493,1104,1470,1523,14.9270000458,795,13.818359375,206.266651024
67.8099420071,-5.6848921776,-3.4402081966,0.3075418472,2.5007977486,-1.9655687809,7.9590477943,0.0082758202,-0.3985807522,0.5087731115,1493,1105,1470,1523,14.9329996109,771,12.646484375,188.849946251
67.9123477936,-5.9199824333,-3.5824635029,0.2807816863,4.7983222008,0.1286079586,8.4637212753,0.0050819877,-0.3295137815,0.5182238785,1493,1105,1470,1523,14.9329996109,747,11.474609375,171.350337332
68.0104498863,-6.0445356369,-3.6622347832,0.2864200175,3.8995988369,1.0696544647,5.4614825249,0.0002603496,-0.2889104057,0.5237768642,1493,1105,1470,1523,14.9329996109,734,10.83984375,161.871382501
68.1127669811,-6.1697382927,-3.7456834316,0.2794487774,0.1503189206,-0.5755887628,10.7660322189,0.0001988491,-0.2511839844,0.5289814572,1493,1105,1470,1523,14.9569997787,719,10.107421875,151.176706748
68.2118339539,-6.2076811791,-3.777066946,0.2750109732,4.8716688156,-2.7573022842,12.4723653793,0.0006188917,-0.2412603663,0.5302535659,1493,1105,1470,1522,14.9569997787,737,10.986328125,164.322507334
68.314016819,-6.2935652733,-3.830098629,0.2565610409,3.7848374844,0.6296527982,6.641931057,0.0001483077,-0.2120727668,0.5320488418,1493,1105,1470,1522,14.9969997406,734,10.83984375,162.565133907
68.4119207859,-6.3647060394,-3.8694932461,0.2217497379,2.9914810658,-3.6151556969,12.1919298172,0.0029715052,-0.193852377,0.5313312909,1493,1106,1470,1523,14.9969997406,762,12.20703125,183.06884449
68.5144429207,-6.3905687332,-3.8868770599,0.213000983,-1.2097506523,5.4646892548,11.0566616058,0.0010943282,-0.1818473618,0.5303238939,1492,1106,1470,1523,14.9969997406,731,10.693359375,160.368307773
68.6125838757,-6.4161806107,-3.922252655,0.1998872459,5.0128684044,-3.283765316,8.8850183487,0.0041874917,-0.1770551842,0.5292366514,1492,1108,1470,1523,15.0249996185,727,10.498046875,157.733150292
68.7110757828,-6.4337124825,-3.9436502457,0.2041931599,4.9059963226,-1.2239500284,4.6385831833,0.006758013,-0.1767334592,0.5279305398,1493,1109,1470,1522,15.0249996185,727,10.498046875,157.733150292
68.8130979538,-6.4468169212,-3.9662549496,0.1876228005,1.895228982,-3.558205843,12.6433324814,0.0043677561,-0.1545973189,0.5242217823,1492,1111,1470,1523,15.0439996719,743,11.279296875,169.685738487
68.9118058681,-6.4543709755,-3.9682691097,0.1601415724,1.0680179596,-0.4754407704,9.9721260071,0.0052223662,-0.14587453,0.5228874859,1492,1113,1470,1523,15.0439996719,729,10.595703125,159.401754336
69.0137279034,-6.4264101982,-3.9665443897,0.1476787478,0.8353174329,2.7669935226,11.3357458115,0.0051169013,-0.1175141443,0.5218051539,1490,1132,1470,1522,15.0590000153,779,13.037109375,196.325830278
69.1123719215,-6.3726911545,-3.954885006,0.1583749503,0.9828026891,1.8285346031,5.9588809013,-0.001328281,-0.0634702671,0.5213884584,1489,1137,1470,1523,15.0590000153,717,10.009765625,150.7370607
69.2149198055,-6.2956624031,-3.9158244133,0.1372142583,1.0904945135,0.5086201429,8.5832424164,-0.0021047026,-0.0240473016,0.5218497508,1488,1177,1471,1522,15.0590000153,752,11.71875,176.472656429
69.3132197857,-6.0961647034,-3.8094725609,0.1504786164,0.2146221399,-0.6461892128,10.9766464233,-0.0138523711,0.1027285814,0.5234272173,1487,1283,1470,1523,15.0780000687,766,12.40234375,187.002539915
69.41533494,-5.7458481789,-3.6068544388,0.1681788415,0.6403239965,0.3440742791,11.206533432,-0.0274179392,0.3120331601,0.5203086652,1487,1340,1470,1522,15.0780000687,771,12.646484375,190.683692275
69.5136678219,-5.3782501221,-3.3843865395,0.1549055576,-0.3361464739,1.5618754625,7.6879467964,-0.0374010352,0.4510347466,0.5129098301,1486,1449,1470,1523,15.0850000381,791,13.623046875,205.503662628
69.616658926,-4.629901886,-2.9188981056,0.099184975,-0.1742741168,-2.3686814308,16.9548015594,-0.0546208701,0.6091982121,0.4944828751,1486,1488,1470,1523,15.0850000381,899,18.896484375,285.053467517
69.7145638466,-4.3404154778,-2.7282857895,0.0746142045,0.1916803867,2.4351248741,11.3075485229,-0.0571956104,0.6463271476,0.4854425536,1488,1488,1470,1522,15.0850000381,939,20.849609375,314.516358216
69.8165659904,-3.4743852615,-2.2105453014,0.0323670134,2.0687265396,-2.3179261684,12.371588707,-0.0693956263,0.6451104829,0.4670159958,1487,1490,1470,1523,15.0430002213,875,17.724609375,266.631302751
69.9149668217,-2.5586857796,-1.6307225227,0.0547990501,-1.275780201,-2.6481361389,15.4633998871,-0.0788644664,0.6014106726,0.4585467014,1486,1490,1470,1523,15.0430002213,829,15.478515625,232.843313972
70.0132758617,-1.9942359924,-1.2648136616,0.0389805175,-1.2857356072,-0.3585066795,12.9722957611,-0.0708592432,0.5354714709,0.4636590201,1487,1488,1471,1522,15.0430002213,831,15.576171875,234.312356963
70.1156859398,-1.7555118799,-1.1106207371,0.0191579089,-0.3226630688,-0.0215018895,9.9686279297,-0.0606112196,0.4772945613,0.4716171435,1487,1490,1470,1523,15.0430002213,771,12.646484375,190.241067252
70.2141327858,-1.2904419899,-0.8151664734,-0.0087148417,0.0401062854,0.6390861869,9.9894866943,-0.041229054,0.3389725064,0.4951772314,1488,1494,1470,1523,15.0430002213,795,13.818359375,207.869583136
70.3167870045,-0.9714505672,-0.6084910631,-0.0530695543,0.9066696763,-0.3727018237,11.1796960831,-0.0271078577,0.2412684673,0.5205416709,1486,1549,1470,1523,15.001999855,815,14.794921875,221.953415823
70.4151959419,-0.7833731174,-0.4936126471,-0.0894601345,-0.7161431313,-1.9081498385,13.1578302383,-0.0225841773,0.2210140473,0.5352991948,1483,1720,1470,1523,15.001999855,869,17.431640625,261.509470129
70.5169098377,-0.4219600558,-0.2697172165,-0.037650723,0.2204418331,-0.0169019792,10.3412399292,-0.0188293271,0.3501645093,0.5600582599,1483,1861,1470,1523,15.001999855,855,16.748046875,251.25419679
70.6158359051,-0.2674468458,-0.168068707,-0.0275754072,-0.6879051328,-0.1482246965,9.9471483231,-0.014291547,0.4272210265,0.5698593284,1487,1900,1470,1523,14.9949998856,907,19.287109375,289.210202872
70.7176349163,0.3955763578,0.2447823286,0.0037754169,-0.8625989556,-0.5488948226,14.8798475266,-0.0004631676,0.5827058113,0.5926238811,1486,1901,1470,1522,14.9949998856,859,16.943359375,254.06567189
70.8166239262,0.9781220555,0.6066020131,-0.0310522355,-1.4772520065,-0.2030342817,12.1850814819,0.0111454899,0.6203740613,0.6104084987,1486,1901,1470,1522,14.9670000076,879,17.919921875,268.207470839
70.9185860157,1.4923200607,0.9279900193,-0.0604689904,-0.5084457994,-2.0257081986,14.8433446884,0.0150165049,0.6031462495,0.6198541349,1487,1901,1470,1522,14.9670000076,886,18.26171875,273.32314467
71.0168838501,2.0468723774,1.2734148502,-0.0585312285,-3.1958465576,-1.1068065167,13.2053174973,0.0170152263,0.5734156838,0.6251827064,1486,1901,1470,1522,14.9390001297,919,19.873046875,296.883449843
71.1155099869,2.2162637711,1.3776960373,-0.0400820933,-2.239335537,-2.2333071232,10.1225242615,0.0159536518,0.5618530195,0.6251663451,1486,1901,1470,1523,14.9390001297,883,18.115234375,270.623488678
71.2174379826,3.0308241844,1.8854943514,-0.0087512061,-1.3181794882,-0.709546566,12.3740215302,0.009517531,0.5481497188,0.6179795463,1487,1901,1470,1523,14.9090003967,897,18.798828125,280.271735973
71.3161289692,3.3559343815,2.0936551094,0.0219487473,-0.2678399682,-0.2114335597,13.0124034882,0.0045797363,0.5519967018,0.6110011063,1488,1900,1471,1522,14.9090003967,911,19.482421875,290.463435463
71.4184157848,3.7888281345,2.3614559174,0.0216068961,1.09788692,-1.4460570812,9.3472452164,1.95562876574E-05,0.5593155938,0.6033154718,1486,1900,1470,1523,14.9090003967,888,18.359375,273.719929158
71.5166449547,4.3176112175,2.7005746365,0.0078603048,0.4316499829,-0.6179412603,11.1089706421,-0.0086417633,0.5731895035,0.5916117539,1487,1901,1470,1522,14.8809995651,883,18.115234375,269.572794856
71.6190428734,4.6371040344,2.899605751,0.0196913704,-2.4795982838,-2.8128669262,10.8424882889,-0.0157713475,0.5857734558,0.5786312567,1486,1901,1470,1523,14.8809995651,816,14.84375,220.889837294
71.7172818184,4.9490308762,3.1134474278,0.005425049,-1.8803639412,-0.5179859996,13.6088628769,-0.0214280846,0.568661608,0.571044587,1487,1898,1470,1523,14.8660001755,848,16.40625,243.895315379
71.8196749687,5.1900053024,3.2755596638,-0.0050431658,-0.712505579,1.5355288982,10.6556577682,-0.0244989295,0.5235398152,0.5652963439,1488,1898,1470,1521,14.8660001755,787,13.427734375,199.616701575
71.9183938503,5.5095562935,3.4886033535,0.0011435248,-0.7440010309,0.1864829659,11.8013381958,-0.0251193054,0.4356822506,0.5591302235,1487,1898,1470,1523,14.8660001755,792,13.671875,203.246096149
72.0200078487,5.7465553284,3.6585671902,-0.0048680324,-1.9020745754,1.1376775503,11.7389144897,-0.0242845769,0.3623785839,0.55614715,1487,1900,1470,1523,14.8789997101,789,13.525390625,201.244283188
72.1184418201,5.8568258286,3.7568902969,0.0328541808,-6.4877133369,1.2429397106,20.5294513702,-0.0218055077,0.3202518298,0.555528651,1488,1897,1470,1523,14.8789997101,747,11.474609375,170.730709564
72.2172977924,5.965335846,3.8284077644,0.0028150512,-0.6661483049,-1.1973605156,9.1050806046,-0.0177875909,0.2936000184,0.5560070936,1487,1898,1470,1523,14.9180002213,735,10.888671875,162.437209441
72.3192927837,6.0526471138,3.8923528194,0.0173024088,-1.6092839241,1.7415264845,10.5323753357,-0.0146676027,0.2733518138,0.5577632848,1487,1896,1471,1522,14.9180002213,713,9.814453125,146.412013891
72.4177517891,6.1359729767,3.9624283314,-0.0093144551,4.0380396843,-0.7135646343,-0.3738080859,-0.0137614005,0.25364753,0.5596322869,1486,1898,1470,1524,14.9180002213,767,12.451171875,185.746584787
72.5201377869,6.2038402557,4.0057454109,-0.0510996133,-2.7792043686,0.7113556862,14.0800046921,-0.0096535208,0.2393974905,0.5625042278,1488,1898,1471,1523,14.9650001526,748,11.5234375,172.448243946
72.6181719303,6.262345314,4.0510287285,-0.1130355597,0.7987753749,-0.268756032,0.2939566076,-0.0065321723,0.2156069788,0.5665990984,1488,1897,1470,1523,14.9650001526,618,5.17578125,77.4555671961
72.720582962,6.2818684578,4.0849328041,-0.0961395055,-3.98980546,4.4743599892,13.1028032303,-0.004421377,0.2141190703,0.5690882607,1488,1898,1470,1523,14.9650001526,715,9.912109375,148.334718309
72.8188929558,6.3317093849,4.12003088,-0.1415130049,-2.1501989365,-2.0751388073,8.857049942,0.0024927951,0.2082184354,0.5680248433,1488,1898,1471,1522,15.0039997101,767,12.451171875,186.817379203
72.9211878777,6.3581852913,4.1317410469,-0.1647807956,0.1665862799,0.9512475729,1.7390375137,0.0008197402,0.1998323264,0.5658526599,1488,1898,1471,1522,15.0039997101,733,10.791015625,161.908395309
73.019892931,6.3788757324,4.1447496414,-0.1419576854,-5.2126626968,-0.4450286627,18.0568351746,-0.0014559184,0.1903765512,0.565038383,1488,1898,1470,1523,15.0290002823,751,11.669921875,175.387259154
73.1218619347,6.4170894623,4.1755752564,-0.1140356511,-2.2996013165,-1.4169858694,9.4914360046,-0.0003989599,0.1780722637,0.5646048085,1488,1898,1470,1522,15.0290002823,723,10.302734375,154.83979783
73.2204480171,6.4331641197,4.171766758,-0.1158514246,3.7850368023,-0.3926939368,-1.1309235096,0.0003384447,0.1747334204,0.5641695384,1488,1898,1471,1522,15.0290002823,766,12.40234375,186.39482772
73.3227829933,6.446723938,4.1780633926,-0.0541552007,1.9845403433,1.3912260532,7.8772826195,-0.0013552253,0.168747664,0.5656442546,1488,1898,1470,1524,15.0590000153,724,10.3515625,155.884179846
73.4214677811,6.4756913185,4.1887793541,-0.0181458425,-1.3155422211,3.4099068642,6.3976302147,0.0002253501,0.1640471728,0.5662002076,1488,1898,1470,1522,15.0590000153,752,11.71875,176.472656429
73.5193369389,6.5184288025,4.2179288864,-0.0015700646,-1.2184525728,0.4917875528,7.0387849808,0.0004969125,0.1582031959,0.567632126,1488,1898,1471,1522,15.0769996643,889,18.408203125,277.540472336
73.6219418049,6.5448274612,4.2318849564,0.0283120088,1.161962986,3.3877105713,9.3043708801,0.0028741753,0.1480867833,0.5666709627,1488,1898,1470,1522,15.0769996643,688,8.59375,129.567965865
73.7204179764,6.5550274849,4.2325882912,0.0322384238,-1.1387553215,-4.6227293015,7.0857663155,0.0014583817,0.1467554632,0.5668088406,1488,1898,1470,1524,15.0769996643,698,9.08203125,136.929782107
73.8226079941,6.5967378616,4.2340116501,0.0726142526,-1.7423477173,-0.1650129855,6.3830814362,-0.0034089251,0.1466258904,0.5662585349,1487,1898,1470,1523,15.0970001221,723,10.302734375,155.540382117
73.9209499359,6.5994091034,4.2295165062,0.0985630676,3.8209133148,1.5185736418,-4.9111590385,-0.0068759514,0.1402130033,0.5655157915,1488,1897,1471,1522,15.0970001221,698,9.08203125,137.11142689
74.022911787,6.6129641533,4.2554278374,0.1066526771,-3.0504984856,-0.8346524239,12.3701133728,-0.0055847336,0.140174936,0.563314846,1488,1897,1470,1522,15.1180000305,709,9.619140625,145.422168262
74.1214499474,6.6288299561,4.2559404373,0.1194272488,-3.1040689945,-2.0938680172,18.7143592834,-0.0032413273,0.1340966536,0.5615437814,1488,1895,1471,1523,15.1180000305,694,8.88671875,134.349414334
74.2236189842,6.6312608719,4.2520036697,0.1029594988,-2.4964718819,-2.4222157002,8.8363809586,-0.0043535624,0.1256056749,0.5615729649,1488,1875,1471,1522,15.1180000305,696,8.984375,135.825781524
74.3221158981,6.5619316101,4.1987338066,0.1524122357,-2.4764153957,1.0480880737,11.6098709106,-0.0057258975,0.0513881874,0.5614997817,1488,1830,1470,1522,15.1339998245,686,8.49609375,128.579881321
74.4245018959,6.3259382248,4.0399494171,0.1664628387,-0.4704467058,-1.9406337738,9.9488506317,-0.0057449195,-0.1821780756,0.562020875,1487,1720,1471,1522,15.1339998245,784,13.28125,200.998435169
74.5228998661,6.0368299484,3.8419818878,0.2193030715,-0.8214179873,-0.3847143948,11.452911377,-0.0068991563,-0.3785778128,0.5619277976,1486,1597,1470,1523,15.1619997025,720,10.15625,153.989059479
74.6213288307,5.401576519,3.4404771328,0.2544083595,-0.531167984,-0.6554777622,13.4114456177,-0.0026604407,-0.5676343517,0.5541139647,1488,1578,1470,1522,15.1619997025,715,9.912109375,150.287399395
74.7234048843,5.1251711845,3.2708487511,0.266032666,-1.1036664248,0.557551682,12.3154268265,0.0004511192,-0.5972631385,0.5513397502,1489,1532,1471,1522,15.1619997025,773,12.744140625,193.226656365
74.8219058514,4.2400708199,2.6945290566,0.1854959726,-1.6409854889,-0.0397381708,12.8515014648,0.0204425538,-0.7327579013,0.5355906148,1486,1481,1470,1523,15.1789999008,808,14.453125,219.383982941
74.9239828587,3.3043692112,2.0851082802,0.130325526,2.208313942,0.6028313041,11.3283605576,0.0330591801,-0.7596387675,0.5258938382,1485,1485,1471,1522,15.1789999008,928,20.3125,308.323435485
75.0225119591,2.6689269543,1.6669465303,0.0185705125,-3.2581584454,-3.4928472042,15.1308660507,0.0392490246,-0.7574556129,0.5300164768,1485,1484,1470,1523,15.1379995346,919,19.873046875,300.838174345
75.1246387959,2.0848767757,1.2817676067,-0.0365863778,-0.1382076889,-1.6533427239,13.2907428741,0.0222391548,-0.6869024889,0.5408150578,1485,1484,1470,1523,15.1379995346,933,20.556640625,311.186416214
75.223086834,1.5570635796,0.9055604935,-0.0037051514,2.982578516,2.8780727387,12.5894622803,-0.0122551764,-0.5450239438,0.5563108857,1485,1484,1485,1521,15.1379995346,916,19.7265625,298.620693944
75.3255429268,1.0296776295,0.5636551976,0.1141156703,0.9235817194,3.2448458672,11.1357860565,-0.0279287689,-0.264108968,0.5828116965,1485,1484,1665,1522,15.0509996414,971,22.412109375,337.324650166
75.4241528511,0.6788175106,0.3451500535,0.6834195852,2.67380023,-2.1748657227,15.9307088852,-0.0256740758,-0.1271358636,0.6017682439,1485,1484,1894,1522,15.0509996414,975,22.607421875,340.264298534
75.5261559486,0.5561291575,0.2637219727,1.1072258949,1.0234808922,1.717924118,10.2500925064,-0.0286382887,-0.0637552648,0.6114748216,1485,1484,1903,1518,14.8990001678,971,22.412109375,333.918021339
75.6246337891,0.4550937712,0.2082893252,1.6737000942,-2.1055064201,-2.3638248444,17.1379241943,-0.0307169006,-0.0221723946,0.6214999563,1485,1484,1903,1521,14.8990001678,971,22.412109375,333.918021339
75.723241806,0.4116473794,0.179108724,2.1342861652,0.1948401779,2.0680963993,13.3401012421,-0.0281858354,-0.0131201981,0.6246807486,1485,1486,1902,1521,14.8990001678,971,22.412109375,333.918021339
75.8252489567,0.3621380031,0.1600682437,2.7088747025,-1.056213975,-1.7156528235,17.0371875763,-0.0326546559,-0.0073367364,0.6244791915,1485,1486,1902,1518,14.8030004501,967,22.216796875,328.87525414
75.923530817,0.3299453855,0.1578851342,3.136980772,0.2082517594,-2.1453473568,15.7878551483,-0.0333061897,-0.0097712197,0.6206920529,1485,1484,1902,1518,14.8030004501,975,22.607421875,334.657676191
76.0262718201,0.2942591906,0.1570964307,3.530867815,-0.8619195819,3.5320084095,13.8139076233,-0.0338679634,-0.0114048628,0.6166226023,1485,1486,1902,1518,14.7139997482,975,22.607421875,332.645599776
76.1242058277,0.2452846915,0.1462739259,4.1498188973,-0.1711172909,4.384428978,12.4550704956,-0.0337036725,-0.0121834574,0.6083067211,1485,1486,1902,1518,14.7139997482,967,22.216796875,326.897943625
76.2265717983,0.2147728652,0.1482807398,4.5290293694,0.8885429502,2.3916122913,13.3893041611,-0.0305538357,-0.0150796906,0.6040988948,1485,1486,1902,1518,14.7139997482,945,21.142578125,311.091889208
76.3250517845,0.1895713061,0.1329986453,4.8296279907,0.3374266028,0.8575791717,10.1531181335,-0.0312262625,-0.0174653641,0.5994426394,1485,1485,1902,1522,14.6149997711,870,17.48046875,255.47704678
76.4274499416,0.1387958378,0.121128507,4.8649563789,0.7925909162,-0.5812020302,9.876791954,-0.0339445569,-0.0260994882,0.5927406727,1485,1488,1901,1522,14.6149997711,875,17.724609375,259.045161958
76.5257489681,0.1067329943,0.1133375168,4.8624415398,-1.530004859,-2.0138001442,8.7831497192,-0.0279731772,-0.0286617992,0.5890946442,1485,1488,1901,1521,14.6020002365,896,18.75,273.787504434
76.6282730103,0.0613704175,0.0830771104,4.8703379631,0.022223765,0.6691111922,11.2153635025,-0.0228645335,-0.0282178611,0.5835984963,1485,1488,1901,1522,14.6020002365,896,18.75,273.787504434
76.7267479897,0.031774424,0.0637254119,4.880238533,2.1537303925,1.6372891665,6.2325444222,-0.0233920978,-0.0253377373,0.5803392605,1485,1488,1901,1522,14.6020002365,896,18.75,273.787504434
76.8291800022,-0.0035292127,0.0479328558,4.8755335808,-1.4997985363,-0.3938161433,10.1404390335,-0.0224366293,-0.0261301199,0.5769145769,1485,1486,1900,1522,14.6210002899,867,17.333984375,253.440190572
76.9273729324,-0.025806874,0.0340657271,4.8569025993,0.1271469593,-0.1524670571,7.4731440544,-0.0197254547,-0.0247651187,0.5755166367,1485,1486,1868,1523,14.6210002899,607,4.638671875,67.8220228291
77.0253648758,-0.0514527857,0.0157263801,4.5300722122,0.6174252629,0.3349042237,4.4700627327,-0.019397723,-0.025276846,0.5738041302,1485,1487,1735,1520,14.6660003662,640,6.25,91.6625022887
77.1277008057,-0.0580448508,0.0064862445,4.3820457459,-0.3432357311,-0.6862598658,6.485452652,-0.0202254604,-0.025916763,0.5734606884,1485,1487,1678,1521,14.6660003662,666,7.51953125,110.281448066
77.2260258198,-0.0972679853,-0.012408019,3.5584478378,-0.0223118514,-0.368906796,5.4932751656,-0.0222418234,-0.0384589968,0.5684317342,1485,1488,1379,1521,14.7690000534,643,6.396484375,94.4696780759
77.3285019398,-0.1175951883,-0.0204382408,3.1658227444,-1.2830953598,0.5437331796,5.6596035957,-0.0199941401,-0.0365864103,0.5653898566,1485,1488,1360,1518,14.7690000534,654,6.93359375,102.402246464
77.4271259308,-0.1327473074,-0.0303877126,2.7280373573,-0.6266459823,0.258915633,5.332760334,-0.0176570633,-0.0321043609,0.5614671545,1485,1485,1376,1518,14.7690000534,619,5.224609375,77.1622561384
77.5293807983,-0.1493853182,-0.0394733064,2.2593171597,-0.5152762532,-0.0759715736,6.1184058189,-0.0125238167,-0.0286600437,0.5584059405,1485,1485,1376,1520,14.8780002594,625,5.517578125,82.090528775
77.6279468536,-0.1663113385,-0.0462763384,1.9281764031,-0.1488242149,-0.4402862191,5.1936049461,-0.0087430632,-0.0255802804,0.5557904258,1485,1485,1375,1521,14.8780002594,625,5.517578125,82.090528775
77.729818821,-0.1837607771,-0.0690804794,1.132447362,0.6644094586,-0.9614961743,4.8362636566,-0.0029528444,-0.012990982,0.5514244356,1485,1488,1377,1521,14.8780002594,627,5.615234375,83.5434584878
77.8283247948,-0.1911091805,-0.0812619105,0.679410398,1.8711750507,0.1328144968,3.204875946,-0.002704257,-0.0077123877,0.5499883587,1485,1485,1377,1521,14.982000351,613,4.931640625,73.8858415748
77.9308488369,-0.1909390539,-0.0901047736,0.2948142886,1.09296,-0.7045652866,3.9927129746,-0.0001447709,-0.0037332154,0.5484125802,1485,1485,1377,1521,14.982000351,613,4.931640625,73.8858415748
78.0292108059,-0.1997863203,-0.1004080921,-0.1490320563,-0.1405994743,-2.0492115021,5.3074007034,0.0043618596,0.0010229609,0.5475312027,1485,1485,1396,1522,14.982000351,615,5.029296875,75.3489275465
78.1271529198,-0.2053975463,-0.1000757888,-0.6900089979,1.5358138084,-2.6231684685,5.0496268272,0.0083703217,0.0055181239,0.5471892193,1485,1488,1393,1521,15.0600004196,875,17.724609375,266.932624625
78.2294888496,-0.1976967454,-0.1153922156,-0.9042298198,-0.8369322419,-0.0771098882,12.090508461,0.0009301623,0.002371658,0.5496539067,1485,1485,1393,1522,15.0600004196,773,12.744140625,191.92676316
78.3280718327,-0.1993167251,-0.1282761842,-0.9074556828,-0.308665812,0.1991106421,12.8638887405,-0.0035880289,-0.0001656317,0.553026842,1444,1486,1393,1521,15.093000412,771,12.646484375,190.873393882
78.4302020073,-0.1891176701,-0.1382665634,-0.9085700512,-0.1734084636,-0.4837211967,12.1394433975,-0.0046703479,0.0072911621,0.5597760044,1396,1492,1393,1521,15.093000412,808,14.453125,218.14102158
78.5283927917,-0.1468238831,-0.1822053343,-0.898311913,-0.592028439,-0.3160843849,10.8864631653,0.0550301131,0.0356247692,0.564669697,1454,1492,1393,1521,15.0769996643,819,14.990234375,226.00775864
78.6309390068,-0.0709408522,-0.2304248512,-0.9198845625,0.8979967237,0.4336349666,7.8112063408,0.0899275373,0.0511593178,0.5699717251,1488,1489,1393,1522,15.0769996643,813,14.697265625,221.590668894
78.7292950153,-0.0049570333,-0.2406623363,-0.8976987004,0.3713089228,-0.4379566312,9.1804065704,-0.0245258054,0.0482381347,0.5735225971,1488,1488,1393,1521,15.0769996643,776,12.890625,194.351948798
78.831720829,0.0074978713,-0.1999351382,-0.8820467591,-0.2475344092,0.5837685466,10.9230871201,-0.0667433775,0.0445944379,0.5749357219,1486,1484,1393,1521,15.0550003052,751,11.669921875,175.69067739
78.9299647808,0.0114164641,-0.1841798723,-0.8836761713,1.1682225466,0.1900211126,6.0979909897,-0.0708552427,0.0429369645,0.5753084817,1382,1489,1393,1521,15.0550003052,775,12.841796875,193.333255872
79.0321478844,0.011491267,-0.1196729913,-0.8782890439,-0.2155808359,2.2501602173,7.2405333519,-0.0661355368,0.0346506447,0.5779209167,1166,1484,1393,1522,15.0550003052,776,12.890625,194.068363309
79.1307590008,0.0295675974,-0.1157587171,-0.8920743465,-2.4236156941,-0.3221494555,10.9834947586,0.0197544438,0.0270533717,0.5800753398,1097,1483,1393,1521,15.0500001907,769,12.548828125,188.859865674
79.2290120125,0.1103305519,-0.2161444575,-0.885170579,2.3219916821,1.2254894972,6.9417333603,0.1454233604,0.0171097207,0.5823251237,1097,1483,1393,1521,15.0500001907,801,14.111328125,212.375490972
79.3314228058,0.2527849078,-0.4297969639,-0.8822467327,-0.9659010768,0.4300292134,13.3561458588,0.231463128,0.0126843592,0.5838973853,1097,1483,1393,1522,15.0439996719,800,14.0625,211.556245386
79.4296419621,0.3830595613,-0.6255858541,-0.8787605166,-0.4476839304,0.1370657235,13.4372606277,0.3008140318,0.0108599643,0.5828553587,1097,1484,1393,1521,15.0439996719,844,16.2109375,243.877338431
79.5319499969,0.6075342894,-0.9951183796,-0.8591402769,-1.6448776722,-2.5346207619,11.8480205536,0.3627783982,0.011847856,0.5750641491,1097,1485,1393,1522,15.0260000229,851,16.552734375,248.721387098
79.630343914,0.682192862,-1.1138842106,-0.8607763648,-1.2477245331,-0.0613612011,12.7119016647,0.3844184899,0.0143192784,0.5702840633,1097,1489,1393,1521,15.0260000229,817,14.892578125,223.775879247
79.7326188087,0.8470547795,-1.3835780621,-0.8560629487,1.8255666494,1.5425709486,8.4678544998,0.4124592669,0.0166784159,0.5620208824,1097,1489,1393,1521,15.0260000229,815,14.794921875,222.308496433
79.83116889,1.2320326567,-1.9832725525,-0.8689091206,0.356775105,0.2086601406,10.8297996521,0.451047296,0.0265420344,0.5435064089,1097,1490,1393,1522,15.0260000229,851,16.552734375,248.721387098
79.9336059093,1.4255803824,-2.3000619412,-0.8558953404,0.1004851088,1.4076685906,10.0231332779,0.4719838,0.032849726,0.5313274988,1097,1489,1393,1522,15.0010004044,828,15.4296875,231.460748427
80.0316410065,1.6444497109,-2.6557483673,-0.8435903192,-0.9923326969,2.8994157314,10.3241891861,0.4836150643,0.0380169537,0.5247206724,1097,1489,1393,1521,15.0010004044,831,15.576171875,233.658160596
80.1340608597,1.8258367777,-2.9512190819,-0.8429304361,2.9596598148,1.367934823,12.6738147736,0.494732474,0.0417786987,0.5199736803,1097,1489,1393,1522,14.9779996872,815,14.794921875,221.598335216
80.2324709892,2.1574485302,-3.4656682015,-0.8451708555,-1.5661062002,-2.5933856964,10.6073026657,0.5120054673,0.0492121424,0.5151290152,1097,1487,1393,1522,14.9779996872,855,16.748046875,250.852240855
80.3348908424,2.4400272369,-3.899708271,-0.8507384062,0.645334959,2.1073031426,8.9036073685,0.5230947627,0.0539817148,0.5132026623,1097,1486,1393,1522,14.9650001526,867,17.333984375,259.403078817
80.4330968857,2.6832706928,-4.2948832512,-0.8466486335,1.448520422,0.656927824,9.4031581879,0.531449007,0.0556554536,0.5138391049,1116,1482,1393,1521,14.9650001526,861,17.041015625,255.018801429
80.5314118862,2.8017184734,-4.472234726,-0.8485357165,-1.8261455298,1.6778883934,7.7980771065,0.5344723372,0.0544941042,0.5133660041,1202,1481,1393,1521,14.9359998703,791,13.623046875,203.473826358
80.6336679459,3.0419945717,-4.8349018097,-0.915664494,-1.1471726894,1.7494009733,9.7889451981,0.4004433209,0.0447392509,0.5122947861,1311,1483,1393,1522,14.9359998703,755,11.865234375,177.219139086
80.7321720123,3.1564674377,-4.9954767227,-0.9123704433,-1.0768551827,1.0542428494,10.0515451431,0.0961598297,0.0212175894,0.509951705,1488,1490,1393,1521,14.9359998703,789,13.525390625,202.015232621
80.8345658779,3.0610752106,-4.8679590225,-0.8152164221,-2.4536056519,2.338975668,12.6051435471,-0.1952299287,-0.0145937059,0.5169565976,1488,1488,1393,1522,14.9399995804,791,13.623046875,203.528314596
80.9328699112,3.0031960011,-4.7776865959,-0.8038387299,0.0560213402,-1.3482761383,13.3474092484,-0.249235771,-0.0225094157,0.5200363593,1488,1488,1393,1521,14.9399995804,823,15.185546875,226.872063941
81.0350909233,2.6293506622,-4.2533369064,-0.7628508806,-0.2716256082,0.4926342666,13.6126432419,-0.4984635304,-0.0647417885,0.5383187994,1488,1489,1392,1521,14.9449996948,805,14.306640625,213.812739774
81.1334629059,2.3046369553,-3.7948937416,-0.7672890425,0.1936347634,-0.0341698751,9.0077323914,-0.6257947961,-0.0646056941,0.5332688773,1488,1483,1393,1522,14.9449996948,891,18.505859375,276.570062711
81.2359538078,1.7557621002,-3.044295311,-0.8268909454,-1.6480790377,4.0134563446,16.6962337494,-0.6956644944,-0.0707176058,0.5334937437,1488,1436,1393,1521,14.9449996948,971,22.412109375,334.948967769
81.3341579437,1.3527299166,-2.5597138405,-0.8843648434,-1.6068843603,-1.5447005034,11.9702682495,-0.6453617269,-0.0982528073,0.5398748949,1488,1286,1393,1522,14.9289999008,891,18.505859375,276.273972774
81.4363698959,0.8137568831,-1.9758988619,-0.9382334948,-3.3438816071,-1.8399806023,15.6981983185,-0.5147646245,-0.1420004037,0.53325289,1491,1101,1393,1521,14.9289999008,919,19.873046875,296.684714825
81.5352048874,0.4656723738,-1.6886690855,-0.900421679,-1.2624585629,0.4213006198,15.215256691,-0.4175764426,-0.1680456877,0.514880114,1493,1099,1393,1522,14.906999588,789,13.525390625,201.622992474
81.6334238052,0.1721438169,-1.4719583988,-0.8960359097,0.2217567861,1.7549369335,8.192404747,-0.3495700346,-0.1964592002,0.5093927807,1492,1099,1393,1522,14.906999588,799,14.013671875,208.901800867
81.7355499268,-0.2870599329,-1.279330492,-0.8975741863,-1.0310581923,-0.5784258246,12.8126277924,-0.2404234251,-0.261844128,0.5120259167,1493,1099,1393,1522,14.906999588,807,14.404296875,214.724847581
81.8345549107,-0.7511330843,-1.2459726334,-0.8659802675,-1.8418771029,0.0084797796,10.990278244,-0.1609141751,-0.3223229547,0.5218831554,1493,1099,1393,1521,14.8999996185,838,15.91796875,237.177728302
81.9361917973,-1.0815609694,-1.2911411524,-0.8637827635,0.6689234972,-0.1600053012,10.9894685745,-0.1146369834,-0.3683462699,0.5338308616,1493,1102,1393,1522,14.8999996185,831,15.576171875,232.084954995
82.0349619389,-1.3971941471,-1.3769558668,-0.8595195413,-1.1667666435,0.5267249942,11.1278810501,-0.0907203591,-0.3936686266,0.5428249149,1493,1100,1392,1521,14.9029998779,819,14.990234375,223.39946106
82.1369819641,-1.7284234762,-1.4972229004,-0.8590135574,1.5356982946,0.1906642169,9.4005451202,-0.0722104974,-0.4188192912,0.5545640065,1493,1103,1393,1521,14.9029998779,819,14.990234375,223.39946106
82.2353448868,-2.0961306095,-1.6659479141,-0.8452827334,-0.4463103116,0.1957236379,12.2107191086,-0.058692416,-0.4416539407,0.5731034534,1493,1102,1392,1522,14.9029998779,790,13.57421875,202.296580374
82.3375627995,-2.6224176884,-1.9429273605,-0.8411670327,0.0035716803,-0.5710690022,10.0602436066,-0.054795558,-0.4713243338,0.5997087974,1493,1102,1393,1521,14.9040002823,827,15.380859375,229.236332467
82.4359560013,-2.9586451054,-2.1416370869,-0.8166107535,0.8050445318,0.0996537432,10.5963029861,-0.0549769802,-0.4854468365,0.6200221816,1493,1104,1392,1521,14.9040002823,816,14.84375,221.23125419
82.5382208824,-3.2907326222,-2.3482239246,-0.7981699109,2.1451733112,-1.3626409769,9.4709692001,-0.0613582423,-0.5025629102,0.6331363362,1493,1104,1393,1521,14.9040002823,856,16.796875,250.340629742
82.6365528107,-3.769307375,-2.641844511,-0.8086147904,1.5331915617,-0.8345486522,11.4623346329,-0.0719479227,-0.5332755879,0.6424178761,1493,1104,1393,1522,14.9029998779,819,14.990234375,223.39946106
82.7353138924,-4.0745887756,-2.8254723549,-0.7980365753,0.2202296257,-1.136251688,12.0130023956,-0.0729036922,-0.5377077225,0.6408059579,1494,1104,1393,1521,14.9029998779,830,15.52734375,231.40400201
82.8373639584,-4.5848879814,-3.1187124252,-0.7984280586,-0.7175179124,0.8461216092,10.6623878479,-0.069190469,-0.5640360791,0.631443043,1493,1105,1392,1522,14.9010000229,803,14.208984375,211.728076497
82.9356818199,-4.8516016007,-3.2654933929,-0.8376113176,3.9832091332,-0.468772769,8.6784591675,-0.0607900738,-0.5573231586,0.6212388638,1493,1105,1393,1522,14.9010000229,761,12.158203125,181.169385044
83.0379588604,-5.2097253799,-3.4629349709,-0.8194624186,2.7417676449,-1.064234972,6.8917703629,-0.0449236193,-0.4800483161,0.5994887133,1493,1103,1393,1521,14.9010000229,779,13.037109375,194.265967095
83.1363408566,-5.4222974777,-3.5851798058,-0.8066202402,0.8215580583,-1.3837654591,12.7394094467,-0.0367020641,-0.4336573768,0.5858703723,1492,1105,1393,1521,14.9119997025,743,11.279296875,168.196871644
83.2387719154,-5.6992845535,-3.7389333248,-0.8072315454,2.379680872,-2.8525726795,9.6260271072,-0.025151647,-0.3662895843,0.5627314109,1491,1105,1393,1522,14.9119997025,703,9.326171875,139.071872225
83.3375828266,-5.8322472572,-3.8204152584,-0.8091833591,2.6766281128,0.2743896246,10.2359371185,-0.0179532433,-0.3286141451,0.5510358338,1490,1106,1393,1521,14.9379997253,752,11.71875,175.054684281
83.4393289089,-5.9499893189,-3.8822617531,-0.8142845631,2.197155714,-0.22931768,8.4437246323,-0.0156078355,-0.2838574168,0.5397863901,1487,1126,1393,1521,14.9379997253,719,10.107421875,150.984665192
83.5378379822,-6.0559868813,-3.9509758949,-0.8430094123,2.5055291653,0.4653688073,7.1216816902,-0.0152424368,-0.2124160949,0.5308037692,1486,1169,1393,1522,14.9379997253,739,11.083984375,165.572555549
83.6404669285,-6.0500049591,-3.9411654472,-0.8419187665,0.3565609753,0.8218711019,10.4668045044,-0.0225519081,-0.0831256273,0.5284712475,1486,1286,1393,1521,14.9650001526,719,10.107421875,151.257569902
83.7385778427,-5.8522820473,-3.7997808456,-0.7745960951,1.0235245228,-2.7796278,13.0273475647,-0.0334729555,0.2067884763,0.5253456852,1486,1468,1393,1522,14.9650001526,760,12.109375,181.216798723
83.8409929276,-5.5134315491,-3.5761852264,-0.7340303063,-0.2255274206,1.0197620392,16.5059871674,-0.0439145359,0.4427851547,0.5198104885,1486,1487,1393,1521,14.9969997406,739,11.083984375,166.226510797
83.9394629002,-5.0942726135,-3.289611578,-0.7445677519,0.3827733099,-1.1471389532,14.2349863052,-0.0325284857,0.5568301895,0.5207031577,1486,1489,1393,1521,14.9969997406,797,13.916015625,208.698482718
84.0375359058,-4.2333550453,-2.7753944397,-0.8150722384,0.6935045123,0.5035695434,13.4243183136,0.0014769288,0.6546195083,0.5312303851,1486,1489,1393,1522,14.9969997406,907,19.287109375,289.248774294
84.1399478912,-3.4711244106,-2.3446214199,-0.8765060306,1.3831561804,-2.4346315861,12.8007831573,-0.0037019867,0.6726707443,0.5527879274,1488,1487,1393,1521,15.0039997101,971,22.412109375,336.271282565
84.2383239269,-2.876761198,-1.9883297682,-0.9239615202,-2.5285551548,-2.1637485027,13.0265874863,-0.011090044,0.6506944637,0.5731385542,1486,1489,1393,1522,15.0039997101,879,17.919921875,268.870502618
84.3417208195,-2.0980465412,-1.5058567524,-0.9194819331,0.8207671642,-0.5129051805,12.4874486923,-0.0112914535,0.5790960215,0.5923301115,1487,1487,1393,1522,14.9589996338,841,16.064453125,240.308148414
84.4391980171,-1.6721596718,-1.2262682915,-0.9558214545,3.3296291828,0.6015121937,7.6110973358,-0.0115849015,0.4920777763,0.6001300596,1486,1486,1395,1522,14.9589996338,860,16.9921875,254.18612659
84.541123867,-1.32297647,-0.9984083176,-0.9269124866,1.997889638,1.2252770662,7.8122854233,-0.0185461037,0.4001964864,0.6060054046,1486,1487,1397,1520,14.9250001907,980,22.8515625,341.05957467
84.6395058632,-0.898661375,-0.713754952,-0.6663686633,-2.183223486,-1.6722078323,16.1426563263,-0.020824898,0.2531423259,0.6142689774,1487,1487,1428,1522,14.9250001907,819,14.990234375,223.729250906
84.7419748306,-0.7302060723,-0.6035565138,-0.4862909019,0.6958197951,-0.2511522472,14.1696567535,-0.0195825643,0.1641101335,0.617672327,1486,1486,1451,1522,14.9250001907,803,14.208984375,212.069094507
84.8402929306,-0.586894989,-0.508382678,-0.2757131159,0.4396152198,0.6802181602,11.6731243134,-0.0200928956,0.1207373113,0.6193026054,1486,1486,1451,1522,14.9250001907,839,15.966796875,238.304446404
84.9426548481,-0.4676048756,-0.4263120592,-0.1889952123,-0.0151979476,0.3027325869,10.8424129486,-0.0233911378,0.0871859977,0.6188066457,1486,1489,1466,1522,14.8579998016,711,9.716796875,144.372166041
85.041135788,-0.4001006484,-0.3662497103,-0.0610269271,-0.7567029595,0.4381128252,11.2118520737,-0.0255613798,0.0693658017,0.6171645606,1486,1489,1473,1522,14.8579998016,767,12.451171875,184.999509248
85.1396548748,-0.3239043653,-0.3068561852,-0.043376971,-0.2553611696,0.0352947526,9.9967155457,-0.0290711314,0.0697990646,0.612126482,1486,1487,1481,1522,14.8620004654,784,13.28125,197.385943681
85.2418239117,-0.3021093309,-0.2901138067,-0.0491452478,-0.96118325,-0.0881600901,10.1034879684,-0.0287584976,0.0722444255,0.6097535163,1486,1489,1482,1521,14.8620004654,815,14.794921875,219.882135792
85.3404099941,-0.2228761613,-0.2255188525,-0.0435313843,-2.3993141651,-0.1651548147,11.7034664154,-0.0315109481,0.0652455484,0.6023299404,1486,1489,1480,1522,14.8760004044,798,13.96484375,207.741021272
85.4423618317,-0.1734059751,-0.1796313673,-0.0011646829,0.3315939009,0.8024512529,6.7545480728,-0.0316420743,0.0533605612,0.595803033,1486,1489,1480,1522,14.8760004044,831,15.576171875,231.711139112
85.5408639908,-0.1232647002,-0.1334952861,0.0296972059,-1.4027010202,0.0231474694,13.7692909241,-0.0312735455,0.0468021344,0.590550124,1486,1489,1480,1522,14.8760004044,791,13.623046875,202.656450822
85.6428790092,-0.0993517041,-0.1109717414,0.0621373355,-1.2331131697,-0.332693845,11.0621318817,-0.0323373762,0.0424652616,0.588420248,1487,1486,1480,1522,14.8839998245,767,12.451171875,185.323240002
85.7414398193,-0.0683098882,-0.0748161599,0.0905567557,1.3483784199,0.6474915147,10.2732400894,-0.0323499497,0.0377591043,0.5855603385,1486,1487,1480,1521,14.8839998245,831,15.576171875,231.835739454
85.8436210155,-0.0482311174,-0.0610244051,0.1006718576,-1.7120562792,-1.4217202663,10.649638176,-0.0347212079,0.0371000683,0.5844118547,1486,1487,1480,1521,14.9010000229,789,13.525390625,201.541846013
85.9425978661,-0.0220118649,-0.0364317149,0.1047326326,-0.3433238864,-0.6773411632,10.0186862946,-0.0353067819,0.0345323338,0.5832089346,1486,1487,1480,1521,14.9010000229,764,12.3046875,183.352148719
86.0444087982,-0.0014465133,-0.0117493076,0.1072667241,0.6042976975,1.1354475021,8.2164592743,-0.0380550557,0.0290405167,0.5831535069,1487,1486,1480,1522,14.9160003662,762,12.20703125,182.080082595
86.143226862,0.0044813934,0.0077923555,0.0868592039,-0.2944200039,-0.6962696314,7.2998123169,-0.0405146108,0.0267236759,0.583474113,1487,1489,1480,1522,14.9160003662,790,13.57421875,202.473051846
86.2420639992,0.0133709684,0.0251548868,0.0533176363,-0.1399490237,-0.9773290753,10.9585542679,-0.0399415286,0.0265766718,0.58315641,1486,1489,1480,1522,14.9160003662,753,11.767578125,175.525199622
86.3436758518,0.0167306252,0.0335969031,0.0340765305,-0.1756618917,1.3025882244,7.9052329063,-0.0385253768,0.0234516623,0.5827960894,1486,1489,1480,1521,14.9329996109,796,13.8671875,207.078705542
86.4419898987,0.0162001457,0.0524329841,0.0041301046,-0.0887643099,-0.1566670239,9.355266571,-0.0355902748,0.0215135423,0.5824572819,1487,1487,1480,1522,14.9329996109,769,12.548828125,187.391645508
86.5441188812,0.0260253735,0.0679670125,0.001668285,-0.2658599913,-0.9127224088,8.311167717,-0.0338481826,0.0193330139,0.5818602861,1487,1487,1480,1521,14.9469995499,780,13.0859375,195.595501923
86.6428308487,0.0240594037,0.0735515729,-0.0102301491,2.2005376816,-0.3516867459,5.6883187294,-0.0331211595,0.017555431,0.5815208444,1488,1490,1480,1522,14.9469995499,763,12.255859375,183.188324562
86.7449128628,0.0286168382,0.0848916098,-0.025781367,1.4914175272,0.8259106874,7.4727358818,-0.0318849415,0.0175614581,0.5810610671,1488,1488,1480,1521,14.9469995499,789,13.525390625,202.164007584
86.8431968689,0.022987619,0.0877555087,-0.0152051607,-0.0467109792,2.1866867542,7.6978311539,-0.0305025414,0.0166798909,0.5807304096,1488,1491,1480,1521,14.9490003586,804,14.2578125,213.140044175
86.9457979202,0.0295685716,0.0880978107,-0.003146016,-1.5900188685,1.0111606121,11.2700300217,-0.0295355282,0.0160500596,0.5803200804,1488,1490,1480,1521,14.9490003586,765,12.353515625,184.672709508
87.0441129208,0.0343560912,0.089368917,-0.010318242,0.3531152606,0.6124106646,10.2360048294,-0.0299229578,0.0146751639,0.5795416129,1489,1491,1480,1522,14.9499998093,771,12.646484375,189.064938995
87.1462869644,0.0332105048,0.1047686711,-0.0560440533,1.3314832449,0.483642906,10.2304973602,-0.0301356627,0.0165903657,0.5780669124,1489,1488,1480,1522,14.9499998093,783,13.232421875,197.824704508
87.244579792,0.0329981521,0.1009908095,-0.0743011162,-0.9892898202,0.1575490832,9.5674133301,-0.0279574023,0.0170353323,0.5762323827,1488,1484,1481,1521,14.9569997787,793,13.720703125,205.220553604
87.3470919132,0.0279262029,0.104861401,-0.0656712428,-0.6352772713,0.1799506396,12.4919099808,-0.0266599785,0.0152170022,0.5735956941,1486,1485,1480,1522,14.9569997787,767,12.451171875,186.232174979
87.4469528198,0.0362096727,0.1070402563,-0.0789925233,0.042659115,-0.3047496378,5.6277389526,-0.0252416067,0.0151546787,0.5716163369,1486,1490,1480,1521,14.9610004425,779,13.037109375,195.048199128
87.5436499119,0.0302656479,0.0988362506,-0.0887984633,0.6948543191,-0.5209727287,6.04575634,-0.0221232614,0.0173089796,0.5674074972,1487,1524,1480,1521,14.9610004425,751,11.669921875,174.593706336
87.6462528706,0.0452497229,0.0933340043,-0.1149189025,-1.5913493633,-1.2301827669,10.9752225876,-0.0223560209,0.0188530445,0.5646095337,1486,1600,1480,1521,14.9610004425,799,14.013671875,209.658551123
87.7443130016,0.0779296234,0.102610901,-0.1532767415,0.8156529665,0.2365114987,6.2036747932,-0.0107714292,0.0631640339,0.5629446096,1487,1676,1480,1521,14.9709997177,793,13.720703125,205.412642611
87.846629858,0.1504493952,0.1326250285,-0.1490950733,-2.267793417,0.6452787519,11.1759176254,-0.0092039073,0.1078062096,0.5634279047,1487,1676,1480,1521,14.9709997177,803,14.208984375,212.722701067
87.9456479549,0.2860459983,0.1992665082,-0.1375237405,-0.3026102483,-1.155333519,11.8680791855,-0.0124146566,0.2012003891,0.5651800311,1486,1790,1480,1522,14.9709997177,787,13.427734375,201.026607537
88.047688961,0.4694992006,0.2932649255,-0.1635158658,0.9407533407,0.3788072765,10.52871418,-0.015837922,0.2898329873,0.5679529412,1485,1864,1480,1521,14.9689998627,783,13.232421875,198.07612123
88.1459519863,0.7987704873,0.4816226363,-0.1694583148,1.1572622061,-1.7400305271,9.1380729675,-0.018101911,0.3664674272,0.5717200885,1489,1900,1480,1521,14.9689998627,832,15.625,233.890622855
88.2479000092,1.167743206,0.7048875093,-0.1708526015,0.1460038424,-1.0551306009,10.0412731171,-0.0196855173,0.4141911085,0.5753445903,1489,1900,1480,1521,14.970000267,800,14.0625,210.515628755
88.3464188576,1.4911381006,0.9045000076,-0.1614434272,1.7072328329,0.4941534698,7.5014595985,-0.0185551816,0.4380489943,0.5775416992,1489,1901,1480,1523,14.970000267,821,15.087890625,225.865726685
88.4486238956,1.7830934525,1.0878487825,-0.1607005447,0.5295339823,1.5711395741,10.5751066208,-0.0166568652,0.4574449134,0.5801602394,1489,1900,1480,1528,14.970000267,847,16.357421875,244.870609836
88.5470838547,2.0792014599,1.2648620606,-0.1297561377,-1.9609895945,-1.7283847332,13.9048843384,-0.0158204014,0.470024287,0.5810735617,1489,1901,1480,1544,14.9499998093,870,17.48046875,261.333004479
88.6457920074,2.5241434574,1.5515233278,-0.10426566,-1.4108678103,-0.5208284855,9.6526470184,-0.0174336138,0.4916397145,0.5861175215,1488,1898,1480,1608,14.9499998093,811,14.599609375,218.264157372
88.7478759289,2.9756522179,1.8654127121,-0.0922546238,-2.1208734512,0.7972491384,12.0731077194,-0.0161238154,0.5222618175,0.6113458967,1489,1899,1480,1697,14.9329996109,864,17.1875,256.660930812
88.8460400105,3.2772371769,2.1099460125,-0.098825939,-2.7481510639,-1.0480735302,13.2212781906,-0.0181239862,0.5345738653,0.6485093003,1489,1899,1480,1808,14.9329996109,851,16.552734375,247.181975981
88.9485509396,3.5564775467,2.3894484043,-0.1136535481,-3.0416567326,-0.1863913685,14.663901329,-0.0255709138,0.5378230968,0.7204896439,1488,1900,1480,1841,14.9329996109,847,16.357421875,244.265374495
89.0468308926,3.7806420326,2.699972868,-0.1267753541,-3.4492781162,0.3514465988,14.1091775894,-0.0376233947,0.5201376584,0.8556702857,1488,1900,1480,1841,14.9259996414,837,15.869140625,236.862787278
89.1490359306,3.8943223953,3.1577723026,-0.1141407117,-4.2360510826,1.0398994684,9.5478591919,-0.1141339626,0.4937799739,1.0748642925,1488,1899,1480,1901,14.9259996414,861,17.041015625,254.354193108
89.2479698658,3.8856725693,3.315762043,-0.1251728535,-2.039645195,-0.3594191968,10.015627861,-0.1563565772,0.4924535515,1.1753988169,1488,1897,1480,1901,14.9139995575,858,16.89453125,251.965031587
89.3499038219,3.5114114285,3.9978108406,-0.1172636896,0.2720707655,3.3374302387,7.0364708901,-0.2733748727,0.5028625703,1.5240282518,1488,1897,1481,1901,14.9139995575,823,15.185546875,226.477239374
89.4481539726,3.0897529125,4.2947535515,-0.1291789413,-0.8977863193,3.1880555153,8.0609169006,-0.3132739142,0.5127777987,1.7688925205,1487,1899,1480,1901,14.9110002518,847,16.357421875,243.905521697
89.5508859158,2.3710796833,4.5877890587,-0.0923786461,-3.3566184044,-1.4332772493,20.73295784,-0.3172251785,0.5310612448,2.1033112136,1487,1899,1480,1901,14.9110002518,847,16.357421875,243.905521697
89.6487128735,2.0522315502,4.6488399506,-0.0955198407,0.4866455495,-0.3741917014,5.852042675,-0.3155634695,0.5365895981,2.1786920025,1487,1900,1480,1901,14.9110002518,831,15.576171875,232.25630275
89.7474238873,0.9884309173,4.6585769653,-0.1059034988,-0.4785203636,0.6045432687,17.4468402863,-0.281292856,0.5811106742,2.6191497571,1488,1897,1480,1901,14.9020004272,839,15.966796875,237.937213852
89.8494229317,0.6500695348,4.5975236893,-0.1185607165,-3.5384132862,-3.1682944298,10.0891017914,-0.2657594976,0.5942032805,2.7712394912,1488,1900,1480,1901,14.9020004272,808,14.453125,215.380474924
89.9481639862,-0.1939345151,4.3219671249,-0.1123563647,3.5518863201,0.4722725749,12.2738666534,-0.1938657925,0.6308519847,-3.1332757701,1488,1900,1480,1901,14.8879995346,855,16.748046875,249.34491408
90.0501298904,-1.0467448235,3.8043963909,-0.1427235603,-1.5280269384,3.9300038815,10.8382472992,-0.0897879064,0.644408639,-2.7029835621,1488,1900,1480,1901,14.8879995346,911,19.482421875,290.054287808
90.148608923,-1.4837418795,3.3620553017,-0.160642311,-5.0507616997,5.455350399,17.0488777161,-0.0488752671,0.6325544691,-2.4368548309,1488,1899,1480,1901,14.8489999771,951,21.435546875,318.296435056
90.2508409023,-2.0037806034,2.5237314701,-0.1107972339,0.8400761485,1.8686429262,11.7282514572,0.0261743093,0.6052289648,-1.9988052974,1488,1900,1480,1901,14.8489999771,971,22.412109375,332.797411596
90.3493928909,-2.1633651257,1.9937204123,-0.0658034906,-0.2780819833,-2.2527911663,15.0172939301,0.0543688881,0.5935259865,-1.7549626337,1488,1899,1480,1901,14.8489999771,976,22.65625,336.422655731
90.4516158104,-2.1941461563,1.3023186922,0.0055647269,-3.4768459797,2.7807950974,15.5733537674,0.0908227149,0.5744649131,-1.3223855263,1488,1900,1480,1901,14.7899999619,935,20.654296875,305.477049994
90.550041914,-2.0025498867,0.524486959,0.0482622385,0.0694579482,0.6608029008,10.4314374924,0.1224116586,0.5680441723,-0.9056453629,1488,1899,1480,1901,14.7899999619,919,19.873046875,293.922362524
90.652630806,-1.6318353415,-0.0830469504,0.0869637504,-1.3578286171,-0.5603324771,13.2517223358,0.1509829937,0.5692189612,-0.5597547501,1488,1899,1479,1901,14.7609996796,871,17.529296875,258.749945555
90.7506718636,-1.0115782023,-0.5866188407,0.1104288548,-2.8962903023,-2.1093521118,13.472369194,0.1783458275,0.5627553359,-0.138224626,1488,1900,1463,1413,14.7609996796,729,10.595703125,156.403170433
90.8529908657,-0.4438848197,-0.8164281249,-0.0014406964,-0.4740642905,-0.015537654,13.4617185593,0.1672736483,0.6029491387,0.1202824423,1488,1898,1464,1524,14.7609996796,935,20.654296875,304.878069554
90.9513249397,0.4335731268,-0.7954487205,-0.0415641665,0.0470894724,-5.2357163429,12.2563076019,0.1356033243,0.6458174739,0.4204449864,1488,1897,1465,1524,14.7309999466,976,22.65625,333.74921754
91.049492836,0.7139735222,-0.7403385043,-0.0379169807,0.2265435159,1.766125679,12.368098259,0.1224364537,0.6543563082,0.4998665657,1488,1896,1464,1523,14.7309999466,911,19.482421875,286.9955556
91.1519649029,1.6739499569,-0.3355652094,-0.0314162709,1.1076527834,0.3366886675,11.5801544189,0.09260092,0.6790403788,0.6611825376,1488,1897,1464,1523,14.7019996643,891,18.505859375,272.073138319
91.2502138615,2.4489302635,0.1524281204,-0.0571563914,1.9024099112,3.2454941273,7.523191452,0.0730941151,0.6447527182,0.7395628353,1488,1897,1464,1524,14.7019996643,947,21.240234375,312.273918651
91.3527178764,2.909567833,0.5164935589,-0.0666382089,-5.2703456879,-4.2480249405,17.1783294678,0.0535549969,0.6134518733,0.7540086385,1488,1895,1464,1523,14.7019996643,928,20.3125,298.634368181
91.4510929585,3.4380939007,0.9613589048,-0.0367222838,-0.7103740573,2.3286659718,12.1000823975,0.0233203147,0.5850216848,0.74889982,1488,1895,1464,1525,14.6999998093,892,18.5546875,272.753902712
91.5532798767,3.7539067268,1.2840684652,-0.0477214195,-0.9089892507,-1.3837327957,11.4031457901,0.0042279481,0.5748619847,0.7345363038,1488,1895,1464,1523,14.6999998093,855,16.748046875,246.196285869
91.6522219181,4.0839014053,1.6331789494,-0.0456346571,-4.7288064957,-1.0128366947,15.6136283875,-0.0166627521,0.5739231095,0.7095529683,1487,1895,1464,1537,14.6940002441,897,18.798828125,276.229985058
91.7540400028,4.5457844734,2.1280529499,-0.0304056294,-0.1925692558,0.2433393896,10.7808303833,-0.0376149248,0.5705806872,0.6711672161,1487,1897,1465,1553,14.6940002441,911,19.482421875,286.274711787
91.8523797989,4.8243207932,2.4308722019,-0.0504680537,-1.1363092661,-0.5313627124,9.7076644898,-0.0495268032,0.5692337073,0.6513612474,1487,1896,1465,1622,14.6940002441,859,16.943359375,248.965726792
91.9545829296,5.19252491,2.912658453,-0.0526365526,0.4285169542,1.8758023977,7.3878502846,-0.089794182,0.5562325864,0.6422323462,1488,1897,1466,1638,14.6940002441,907,19.287109375,283.404789864
92.0530569553,5.3894696236,3.3532698154,-0.0438963585,-3.7667322159,-0.3821492195,13.9119510651,-0.1843990357,0.5047981512,0.6722698092,1488,1897,1466,1639,14.6940002441,891,18.505859375,271.925102174
92.1515479088,5.4310121536,3.6090435982,-0.0301776268,-2.5648767948,-1.7260323763,11.9294137955,-0.2444056152,0.4745142426,0.6959990612,1487,1898,1465,1688,14.6940002441,879,17.919921875,263.315336406
92.2538599968,5.3163580895,4.3069114685,0.0199110154,-1.7833756208,0.7356066704,13.2833833694,-0.4063980398,0.404700626,0.7885928211,1488,1898,1466,1690,14.7019996643,891,18.505859375,272.073138319
92.3523449898,5.0680766106,4.8006315231,0.0489367731,-4.1557631493,2.4409902096,13.2242898941,-0.4866687093,0.3768784325,0.8537589298,1486,1898,1465,1691,14.7019996643,831,15.576171875,229.000873677
92.4543659687,4.4719667435,5.5453128815,0.0676391497,-4.2458796501,1.014518261,10.2189922333,-0.5895025911,0.3355381305,0.9803921773,1487,1897,1465,1689,14.7150001526,843,16.162109375,237.825441919
92.5534398556,4.2359466553,5.7613320351,0.0645278916,-3.3249895573,-1.1489902735,16.4901485443,-0.6166755934,0.3197359588,1.0346079281,1486,1897,1465,1689,14.7150001526,886,18.26171875,268.721194193
92.6553189754,3.3402228355,6.4231767654,0.1150970533,1.5608873367,0.4393930435,11.2908973694,-0.6625906081,0.2847748357,1.1821624325,1488,1898,1466,1688,14.7209997177,840,16.015625,235.766011104
92.7537248135,2.3891973496,6.883500576,0.0959019959,0.0079458337,1.0241625309,11.6862487793,-0.6819691771,0.2691429499,1.333221204,1486,1897,1465,1688,14.7209997177,856,16.796875,247.266792133
92.8558728695,1.6679184437,7.1002368927,0.085295178,-3.125071764,1.5384213924,18.548494339,-0.6808460994,0.261538508,1.4687098531,1486,1897,1465,1680,14.7410001755,864,17.1875,253.360940516
92.954417944,0.9199739695,7.2454690933,0.0597766303,-2.0460753441,-3.0580534935,12.1188964844,-0.6761239378,0.2597227886,1.5804623455,1488,1897,1466,1678,14.7410001755,846,16.30859375,240.404983331
93.0569839478,0.0953476429,7.2899713516,0.0916643366,0.5061092973,1.306658268,8.1590528488,-0.6703210839,0.2618024795,1.6995858211,1487,1897,1465,1679,14.7410001755,877,17.822265625,262.718020706
93.1550979614,-1.0026923418,7.1964979172,0.0781407058,1.254042387,0.0473743714,7.1075382233,-0.6622209159,0.2697877805,1.8818064007,1488,1897,1466,1678,14.7530002594,875,17.724609375,261.491166707
93.2537369728,-2.0889649391,6.9295344353,0.0872419626,-5.790558815,-0.516810894,23.1677417755,-0.6634854915,0.2809719168,2.0549683621,1486,1897,1465,1678,14.7530002594,887,18.310546875,270.135502797
93.3555059433,-2.9113821983,6.6046357155,0.0848286152,-3.508743763,-1.379322052,16.2833328247,-0.6657787714,0.2912577113,2.2111567066,1486,1897,1466,1678,14.7530002594,856,16.796875,247.804301232
93.4542088509,-3.3060045242,6.407034874,0.071081385,-2.1337940693,4.7634682655,14.1947097778,-0.6663114369,0.2937584186,2.2563446222,1488,1897,1472,1678,14.7600002289,686,8.49609375,125.402345695
93.5561649799,-4.131465435,5.8621048927,0.0924781412,-1.0306947231,-2.4340114594,16.5224971771,-0.6538193713,0.2995712473,2.4146696646,1487,1897,1473,1678,14.7600002289,883,18.115234375,267.380863522
93.6548478603,-4.8051328659,5.265809536,0.0794353634,2.722370863,1.8215852976,7.579867363,-0.6464182352,0.3074068172,2.5780196052,1488,1897,1475,1686,14.7779998779,843,16.162109375,238.84365037
93.7570238113,-5.453040123,4.513314724,0.0778147057,-0.705987215,-2.7491445541,13.7284660339,-0.6424386155,0.3261954389,2.7337450304,1487,1897,1475,1687,14.7779998779,872,17.578125,259.769529104
93.8552517891,-5.8365249634,3.9601378441,0.0538977496,-1.1598063707,0.7284167409,12.3224534988,-0.6414054046,0.3373160527,2.8292021744,1486,1900,1473,1685,14.7779998779,845,16.259765625,240.286814421
93.958313942,-6.3626322746,2.9051206112,0.0342139453,-1.6779087782,1.770229578,8.9626216888,-0.6252406726,0.3559827009,3.0276578547,1488,1897,1475,1685,14.7609996796,915,19.677734375,290.463030805
94.0558869839,-6.6965923309,1.8031914234,0.03556538,0.6748623252,-3.5454089642,12.7759456635,-0.6170510584,0.3760770484,-3.0617139541,1487,1900,1474,1688,14.7609996796,813,14.697265625,216.946333182
94.1588199139,-6.8104767799,1.0898879767,0.0173856597,-2.0104937553,2.1313092709,11.8751659393,-0.6139873195,0.3910549523,-2.926619693,1487,1897,1475,1688,14.7489995956,867,17.333984375,255.658928537
94.2565529346,-6.8487815857,0.3519789875,0.0306292847,-0.3951785266,-2.3158588409,13.6696166992,-0.6051240862,0.405634381,-2.8080524705,1488,1897,1475,1688,14.7489995956,847,16.357421875,241.255608619
94.3589558601,-6.8211884499,-0.3181754053,0.0242558494,-4.8602991104,-2.1438946724,19.605463028,-0.6016581823,0.4140685359,-2.7426864551,1487,1900,1475,1688,14.7489995956,914,19.62890625,289.506730343
94.4573760033,-6.6455159187,-1.2877333164,0.0456762686,-3.2474651337,1.5392093658,10.5797367096,-0.5919948977,0.4380342678,-2.5354060613,1487,1899,1474,1688,14.7309999466,903,19.091796875,281.241258746
94.5555529594,-6.3535280228,-2.1807382107,0.0319213048,-2.6734063625,1.1666228771,13.4934453964,-0.5797018382,0.4580070692,-2.3568619428,1487,1897,1475,1688,14.7309999466,900,18.9453125,279.083397426
94.6579978466,-5.9247913361,-3.0963277817,0.0262482557,-0.5517358184,0.6679389477,10.6738605499,-0.5781530939,0.4715860494,-2.2269544747,1486,1900,1474,1688,14.7259998322,943,21.044921875,309.907516
94.7562658787,-5.5198431015,-3.7256731987,0.0181139857,0.996404767,-0.1563176066,12.078130722,-0.5793035993,0.4878931647,-2.0625673063,1488,1897,1474,1688,14.7259998322,887,18.310546875,269.641110209
94.8585519791,-4.9968438149,-4.3289499283,-0.0092445966,-2.5720334053,0.9186204672,13.1501970291,-0.5786404779,0.4957353139,-1.9790514308,1486,1899,1474,1688,14.7049999237,879,17.919921875,263.512449805
94.9573998451,-4.4334144592,-4.8708372116,-0.0181361362,-2.276725769,0.2768964469,14.6973657608,-0.5711098998,0.5078427839,-1.8599801065,1487,1897,1475,1685,14.7049999237,835,15.771484375,231.919676531
95.0595569611,-3.5371489525,-5.498860836,-0.0106394105,-0.1688291579,-2.9127035141,8.6042785645,-0.5597067939,0.5200501538,-1.6397151105,1488,1899,1474,1685,14.7049999237,959,21.826171875,320.953855757
95.1578569412,-2.5487523079,-5.982820034,-0.0276665874,0.5787953138,1.5462437868,9.2646856308,-0.5552550782,0.5295843077,-1.4536801118,1488,1899,1475,1688,14.6920003891,927,20.263671875,297.713875072
95.2602338791,-1.8353464603,-6.2120556831,-0.0377588421,-1.3943006992,-1.2241330147,17.488697052,-0.552250672,0.5386117075,-1.3141249237,1487,1899,1474,1688,14.6920003891,923,20.068359375,294.844343746
95.358506918,-0.760502696,-6.3983874321,-0.046611242,-0.2296504229,0.9568114877,9.1076030731,-0.550549019,0.5502709715,-1.1234969479,1488,1897,1475,1685,14.6700000763,935,20.654296875,302.998536732
95.4606778622,-0.0055446103,-6.4173121452,-0.0626761466,-4.1374397278,3.3651044369,14.491932869,-0.5520346302,0.5557309595,-1.0265456018,1487,1899,1473,1685,14.6700000763,971,22.412109375,328.785646241
95.5592679977,0.7188993096,-6.3678092957,-0.0454559103,-1.101739049,1.1673928499,9.4936094284,-0.5510759986,0.5613125169,-0.9251964321,1487,1900,1474,1688,14.6700000763,888,18.359375,269.332032651
95.6575119495,1.8864006996,-6.0826740265,-0.0356086008,-0.9599666595,3.1347877979,7.0078716278,-0.550548252,0.5621516006,-0.7433321787,1487,1900,1474,1685,14.6560001373,885,18.212890625,266.928127501
95.7600069046,2.5462222099,-5.8032016754,-0.0590791665,-1.2200570107,0.5047615767,16.4546947479,-0.5516652945,0.5655825679,-0.6010742768,1487,1900,1474,1685,14.6560001373,917,19.775390625,289.828127715
95.858314991,3.2033755779,-5.4500355721,-0.0585957915,0.6551686525,2.0200343132,10.8903779984,-0.5500428853,0.5692094039,-0.4927517638,1486,1899,1474,1685,14.6560001373,927,20.263671875,296.984377782
95.9606258869,3.849647522,-4.9912762642,-0.0567874759,-0.1607452631,0.8153580427,13.1412286758,-0.5482337232,0.5730982732,-0.3956102405,1487,1897,1474,1678,14.6560001373,913,19.580078125,286.965627688
96.0590729713,4.6897034645,-4.2023491859,-0.056776356,-0.176811561,0.6855608225,10.4433097839,-0.5413245625,0.5702974975,-0.204592616,1487,1895,1472,1617,14.6289997101,902,19.04296875,278.579584323
96.1612939835,5.1692943573,-3.5936629772,-0.0497000925,-2.5743556023,1.5237098932,14.1850967407,-0.5357965273,0.5645257263,-0.1184716707,1488,1860,1473,1523,14.6289997101,869,17.431640625,255.00746565
96.2595570087,5.758304596,-2.5554888248,-0.0093331551,-2.0330679417,-0.6984175444,10.911110878,-0.555476257,0.5213067696,0.0611014695,1488,1845,1474,1523,14.6289997101,895,18.701171875,273.579437938
96.3622879982,5.880343914,-2.2288265228,0.0171447359,-0.3620010614,4.6033778191,8.4308662415,-0.5647879694,0.5002587386,0.1054884496,1488,1845,1474,1523,14.6219997406,831,15.576171875,227.754781116
96.460600853,6.0868902206,-1.1842304468,0.0201737378,0.4842032194,-0.8996601701,8.1132154465,-0.569399044,0.3582463877,0.2566304866,1488,1664,1473,1525,14.6219997406,763,12.255859375,179.205172602
96.5628929138,5.9021344185,-0.331741184,0.0707938075,0.0987500474,-0.0538962483,2.8807070255,-0.4925027076,0.1155723492,0.3932343319,1488,1504,1473,1523,14.6490001678,760,12.109375,177.390236407
96.6609179974,5.6294326782,0.0213798154,0.0957218111,0.7294852734,-2.8587055206,5.772392273,-0.4262251074,-0.1091507057,0.4782584125,1485,1482,1473,1525,14.6490001678,839,15.966796875,233.897610101
96.7594599724,4.9832735062,0.3494389951,0.1623938233,-0.0918030888,-2.7507808209,13.7699251175,-0.3837955372,-0.3299278104,0.5373679411,1485,1479,1475,1523,14.6490001678,797,13.916015625,203.855715226
96.8615648746,4.6409850121,0.4341451526,0.1803378016,-2.9463386536,-0.1429645419,8.4513015747,-0.3704486622,-0.4176230563,0.556886876,1485,1476,1474,1523,14.6490001678,787,13.427734375,196.702883113
96.9598658085,3.635286808,0.5001752377,0.1514274627,-1.8969438076,-0.3598736525,11.1456279755,-0.3413002337,-0.5927224163,0.5890524694,1489,1358,1474,1523,14.6490001678,944,21.09375,309.00234729
97.0623509884,2.5594673157,0.4276886582,0.0447365455,0.8556537628,-1.2145011425,15.68891716,-0.2811312455,-0.6752169452,0.5866031374,1490,1217,1474,1523,14.7030000687,971,22.412109375,329.52524568
97.1607108116,1.8340812922,0.3239774108,-0.0022645232,-0.2619156837,-4.4952273369,16.8337993622,-0.2102184118,-0.6723929752,0.5528235351,1491,1138,1473,1525,14.7030000687,971,22.412109375,329.52524568
97.2631268501,0.7953383923,0.1137132347,0.1008746475,-4.1448149681,-3.2260580063,18.3963088989,-0.1373411028,-0.5906617978,0.481125612,1489,1099,1473,1525,14.6680002213,875,17.724609375,259.984574235
97.3618898392,0.5033416748,0.0491389558,0.1335171759,1.8063492775,0.3412780464,13.7912750244,-0.129083296,-0.5878706702,0.4656554321,1489,1099,1473,1525,14.6680002213,942,20.99609375,307.970707771
97.4636199474,-0.4596651793,-0.1582599133,0.161239922,0.0390068442,-2.0595808029,9.8964424133,-0.1164339038,-0.6446688977,0.4429858874,1489,1099,1474,1523,14.6560001373,927,20.263671875,296.984377782
97.562514782,-1.0007528067,-0.2910108864,0.1336010695,0.2187198848,1.3543741703,12.0681467056,-0.1054939361,-0.6553907866,0.4331405909,1489,1099,1474,1523,14.6560001373,887,18.310546875,268.359377514
97.6645298004,-1.9869470596,-0.5635682344,0.135615021,1.5745983124,0.9699525237,9.8964271545,-0.0803510935,-0.6111402574,0.4195515828,1489,1099,1474,1523,14.6560001373,880,17.96875,263.350002467
97.7631368637,-2.5241377354,-0.717443645,0.1272663623,0.4486877024,0.2138569206,11.6834564209,-0.0753351624,-0.581101214,0.4201393255,1488,1099,1474,1523,14.6510000229,883,18.115234375,265.406299243
97.8653478622,-3.15731287,-0.9138868451,0.1275979131,2.3835570812,1.5194126368,10.1823978424,-0.0785080708,-0.556625961,0.4277033092,1488,1099,1474,1523,14.6510000229,885,18.212890625,266.837060964
97.9633979797,-3.4385557175,-1.0050039291,0.1275160313,0.3839564025,-0.4375086725,10.7280855179,-0.0792686297,-0.551924086,0.4300480569,1486,1101,1473,1525,14.6510000229,907,19.287109375,282.575439895
98.0616819859,-4.149851799,-1.2348407507,0.146966815,4.9490509033,0.2550424039,9.0366506577,-0.0873383167,-0.5395920721,0.4381203243,1486,1102,1475,1523,14.654999733,863,17.138671875,251.167231752
98.1644308567,-4.8030166626,-1.4362789393,0.1688867062,0.9832963347,-2.0389447212,11.9764881134,-0.0959758802,-0.5420927971,0.4387019873,1486,1104,1474,1523,14.654999733,867,17.333984375,254.029536387
98.262337923,-5.1821579933,-1.5495203733,0.1576220244,1.2783490419,1.156501174,12.7850389481,-0.0958099702,-0.54642372,0.4363155869,1486,1104,1474,1523,14.6649999619,807,14.404296875,211.239013123
98.3649778366,-5.5219249725,-1.6524507999,0.1209399551,2.801481247,-2.7291655541,9.1823263168,-0.0936024004,-0.5326464926,0.4318582464,1486,1104,1474,1523,14.6649999619,828,15.4296875,226.2763666
98.4632627964,-5.8065652847,-1.7423695326,0.0952089205,1.4607177973,1.0557540655,9.1882867813,-0.0827028957,-0.4744252808,0.4185650318,1486,1104,1473,1525,14.6649999619,811,14.599609375,214.103270928
98.5656228065,-6.1411190033,-1.8502738476,0.0930099115,-0.5955433846,0.3036599457,9.2631530762,-0.0690875224,-0.3973140194,0.4003526346,1486,1104,1474,1523,14.6929998398,750,11.62109375,170.748728607
98.6639289856,-6.4028859139,-1.9200817347,0.0446559042,1.2651238442,-1.6811281443,12.3642301559,-0.0610166643,-0.343697826,0.3820918989,1487,1105,1474,1523,14.6929998398,773,12.744140625,187.249656162
98.7663018703,-6.5252766609,-1.970738411,0.0109739238,2.8166589737,0.2155613303,5.114677906,-0.0533801306,-0.3022419625,0.3668693657,1488,1243,1474,1523,14.7290000916,758,12.01171875,176.920606569
98.8645808697,-6.5967941284,-1.9930949211,-0.0460885055,1.4603601694,-0.6850527525,11.0854282379,-0.0366095799,-0.1105820824,0.3428199064,1486,1324,1473,1525,14.7290000916,741,11.181640625,164.69438579
98.9669468403,-6.5799121857,-1.9864153862,-0.0231098086,0.8452355266,-0.0711608455,8.6894836426,-0.0328372773,-0.045781536,0.3369854826,1486,1457,1473,1523,14.7600002289,753,11.767578125,173.689455819
99.065830946,-6.3572173119,-1.9193748236,0.0050378563,0.384503305,0.0065971254,9.9357824326,-0.0246055181,0.2122575149,0.3190609633,1459,1488,1474,1523,14.7600002289,761,12.158203125,179.455080908
99.1636638641,-5.7779402733,-1.73757267,-0.0188637171,-0.7706109881,0.7017895579,12.2021856308,-0.0265349484,0.4839885088,0.3067401884,1346,1488,1474,1523,14.7950000763,822,15.13671875,223.947755061
99.2662498951,-4.9381847382,-1.5397460461,-0.0398086049,-1.6531503201,-1.9318640232,16.3018608093,0.0354241847,0.6370642943,0.3043952672,1194,1485,1474,1523,14.7950000763,980,22.8515625,338.088868931
99.3645749092,-4.2350926399,-1.4736937285,-0.1087634638,3.195135355,0.3324996829,12.7968225479,0.1343741699,0.6114384175,0.3059522079,1127,1484,1473,1523,14.7950000763,971,22.412109375,331.587159913
99.4669299126,-3.4927582741,-1.5586374998,-0.107037887,2.1580345631,-0.5809671879,12.0416278839,0.2777680937,0.4923672148,0.2967340931,1097,1478,1474,1523,14.7779998779,917,19.775390625,292.240720242
99.5655288696,-2.9664664269,-1.7421365976,-0.0613575652,1.7386888266,-0.8840198517,12.3840618134,0.3534233467,0.4104873447,0.2874528154,1097,1480,1474,1523,14.7779998779,915,19.677734375,290.797556191
99.6674599648,-2.2593815327,-2.1782774925,0.0180677921,3.3743450642,2.7314705849,8.0006361008,0.4825350525,0.3186350691,0.2915332602,1097,1479,1474,1523,14.75,904,19.140625,282.32421875
99.7657518387,-1.8257013559,-2.551435709,0.0097660888,-1.4534201622,-0.0898033902,13.3997068405,0.5438001762,0.2717957341,0.3022298389,1097,1482,1473,1525,14.75,909,19.384765625,285.925292969
99.8683898449,-1.2667610645,-3.1059980393,-0.0256097727,0.5936763287,1.4267576933,11.2351074219,0.5543437426,0.213249165,0.3102154816,1097,1482,1473,1525,14.75,903,19.091796875,281.604003906
99.9663558006,-0.8927131891,-3.5210025311,-0.0226523168,-1.1115987301,-0.0482678264,14.3350057602,0.5359517966,0.1769211808,0.3133898412,1097,1482,1473,1525,14.7510004044,903,19.091796875,281.623103424
100.068528891,-0.5473916531,-3.9418656826,0.0176874828,0.1610941142,-0.8588573337,10.887383461,0.5160756067,0.1514270414,0.3168493718,1097,1482,1474,1523,14.7510004044,890,18.45703125,272.259675433
100.167263985,-0.1352478564,-4.4477801323,0.0639686882,0.5237098336,-0.5264210701,11.1663923264,0.5032651763,0.1290743532,0.3207996257,1097,1482,1474,1523,14.7510004044,912,19.53125,288.105476648
100.265965939,0.2701935768,-4.9677343369,0.1125069112,-1.5629200935,-1.671202898,13.1259031296,0.4967620419,0.1165223967,0.3198033879,1097,1483,1473,1525,14.7290000916,873,17.626953125,259.627394193
100.367692947,0.5312060118,-5.3278565407,0.1336285621,-2.7244911194,-2.0305147171,15.5558996201,0.4984362904,0.1169107012,0.3187548566,1097,1483,1473,1525,14.7290000916,917,19.775390625,291.271730327
100.466355801,0.8114795685,-5.6949977875,0.1479766667,-0.1193967164,-0.2339158356,14.7196331024,0.5017903017,0.1155881874,0.315790688,1097,1484,1473,1525,14.7089996338,843,16.162109375,237.728460878
100.568799973,1.0221371651,-5.9739599228,0.1534610987,1.6704480648,1.6632199287,11.2835655212,0.501577536,0.1143290408,0.3128968044,1097,1485,1474,1523,14.7089996338,834,15.72265625,231.264545024
100.667174816,1.3121869564,-6.3856472969,0.1351949722,1.2707570791,1.7247043848,5.4326944351,0.4460846781,0.0971093081,0.3002314148,1097,1485,1473,1525,14.7089996338,847,16.357421875,240.601312369
100.769030809,1.5549331904,-6.734418869,0.1492282301,1.6597158909,0.7054157853,6.3481135368,0.3513464714,0.0684696905,0.2822848062,1097,1488,1474,1523,14.7049999237,831,15.576171875,229.047606233
100.86736083,1.6450994015,-6.8962812424,0.1342550516,-1.8910427094,1.7965339422,7.5272989273,0.3061253969,0.0512465351,0.2733911489,1097,1488,1473,1525,14.7049999237,735,10.888671875,160.117919091
100.969734907,1.700142622,-6.9827513695,0.1561664343,-0.5520060658,1.1335455179,12.0682058334,0.2922880487,0.046993974,0.2705886662,1097,1488,1474,1525,14.7049999237,830,15.52734375,228.329588659
101.067970991,1.8413578272,-7.2230734825,0.1251433343,-1.2095541954,4.0677418709,10.8501739502,0.2273547714,0.029999379,0.257487268,1097,1488,1474,1523,14.7049999237,763,12.255859375,180.222411174
101.170403004,1.8870364428,-7.3061637878,0.1386046112,-2.5406365395,1.2235617638,17.8873443604,0.2087846973,0.0244480294,0.253255726,1097,1487,1474,1523,14.7049999237,759,12.060546875,177.350340877
101.268839836,1.9219717979,-7.3860521317,0.1311866343,0.8713184595,-1.3172858954,7.6532301903,0.1877773121,0.0209562712,0.2484706739,1097,1487,1473,1525,14.7460002899,784,13.28125,195.84531635
101.371501923,1.9310709238,-7.4234757423,0.1210306883,-0.2822089493,0.9255037904,6.0737023354,0.1743148006,0.0229205241,0.2455931006,1097,1487,1473,1525,14.7460002899,760,12.109375,178.564847261
101.469633818,1.9524381161,-7.4669938088,0.1211429536,-1.300198555,-0.733669579,6.0799365044,0.1673688814,0.0232892783,0.2447192378,1097,1486,1475,1523,14.7709999084,769,12.548828125,185.358739085
101.568445921,1.9712916613,-7.4724531174,0.0763355345,1.1798443794,0.9084476829,8.8773927689,0.1259354376,0.0201582602,0.2426500194,1206,1488,1473,1525,14.7709999084,759,12.060546875,178.146336786
101.670213938,1.950899601,-7.4015302658,0.0885648057,1.1748255491,0.9785196185,11.7904787064,-0.0032138798,0.0106454985,0.243317584,1298,1490,1474,1525,14.7709999084,796,13.8671875,204.832225292
101.768752813,1.8553959131,-7.1062612534,0.1465105265,-1.6011166573,-1.7237913609,14.7259130478,-0.2233477296,-0.0060390304,0.2502443821,1432,1488,1474,1523,14.7910003662,823,15.185546875,224.609429389
101.870729923,1.7707235813,-6.7979707718,0.1917273849,2.558506012,0.1293484569,7.1253724098,-0.3711376115,-0.0194079891,0.2604473133,1485,1489,1473,1525,14.7910003662,765,12.353515625,182.720854133
101.969204903,1.6730304956,-6.5029020309,0.2371592671,-2.1150467396,1.306375742,17.5882415771,-0.4584368446,-0.0218762475,0.2674520033,1486,1490,1473,1523,14.7910003662,846,16.30859375,241.220416128
102.071491003,1.4272007942,-5.7310891151,0.217069149,1.8401372433,-2.5158305168,12.8258333206,-0.637453257,-0.0279038969,0.2894034503,1488,1489,1473,1525,14.8109998703,875,17.724609375,262.519187154
102.170216799,1.1273440123,-4.7587757111,0.1406751126,2.2084376812,1.3414204121,11.25922966,-0.6894038884,-0.010103597,0.2948954356,1489,1491,1474,1523,14.8109998703,931,20.458984375,303.018014925
102.272125959,0.8808597922,-3.867123127,0.0858100355,1.4187470675,-0.8798606992,14.9646682739,-0.6778211847,0.0055475301,0.282842326,1488,1493,1474,1523,14.7950000763,967,22.216796875,328.697511461
102.37063098,0.6598765254,-2.9531650543,0.1072055921,0.7071334124,-0.7175492048,12.9618015289,-0.6575943398,0.0186173465,0.2659707592,1489,1498,1474,1523,14.7950000763,791,13.623046875,201.552979555
102.473250866,0.5082269907,-2.3244309425,0.0577151328,0.8132888675,0.1632161736,7.1318349838,-0.5625923842,0.0205720765,0.2616079884,1490,1537,1474,1523,14.767999649,899,18.896484375,279.063274617
102.57128191,0.4608594477,-2.0858938694,0.0506205298,3.1191334724,0.4800250232,9.0021562576,-0.4957028122,0.0203857708,0.2620339685,1521,1621,1473,1525,14.767999649,782,13.18359375,194.695307873
102.669704914,0.4153886437,-1.4448009729,0.0910071209,-1.3057373762,-0.8394508362,15.2472648621,-0.3821551982,0.1133466833,0.2353201389,1577,1723,1473,1523,14.767999649,894,18.65234375,275.457805953
102.771831989,0.629108429,-0.8693523407,0.1928963363,-1.6249308586,0.2988678217,11.991232872,-0.3060670447,0.3416759665,0.196750947,1687,1901,1474,1523,14.751999855,879,17.919921875,264.354684902
102.870284796,0.9010977149,-0.506431818,0.2229391783,1.6844902039,-0.6408520937,9.6542348862,-0.3123877114,0.4419537299,0.1881585887,1873,1900,1474,1523,14.751999855,912,19.53125,288.124997168
102.973033905,1.463996768,0.1653385907,0.2274099737,-0.0070128217,-1.7237309218,13.026766777,-0.3860442036,0.5344391988,0.2031402502,1898,1901,1473,1523,14.751999855,867,17.333984375,255.710934987
103.071156979,1.6191362143,0.360218823,0.1960152686,0.5683146119,-1.0918272734,12.3440923691,-0.397739668,0.5375782278,0.2184983438,1898,1901,1475,1523,14.7229995728,899,18.896484375,278.212931381
103.173274994,2.2458815575,1.3119485378,0.1359548122,-2.3730041981,-0.2856728733,12.3224744797,-0.4019262677,0.5083293507,0.2679952126,1898,1901,1473,1525,14.7229995728,851,16.552734375,243.705901132
103.27165699,2.4628341198,1.7250051498,0.1303167939,2.5608940125,0.0959760845,10.0091438293,-0.3907365977,0.446257168,0.3372848842,1898,1901,1473,1525,14.7100000381,843,16.162109375,237.744629522
103.37399888,2.7084684372,2.341407299,0.1486295015,-4.2838401794,0.5647387505,13.6855812073,-0.3966345972,0.4186474388,0.3685794676,1898,1901,1473,1523,14.7100000381,900,18.9453125,278.685547597
103.472836971,2.8473126888,2.7230505943,0.1316667497,0.8300307393,-0.5187785625,10.8722066879,-0.4089021424,0.4151361496,0.376744911,1898,1901,1473,1523,14.6990003586,876,17.7734375,261.251764186
103.575145006,2.9612708092,3.1145365238,0.1012930125,0.0841720924,-0.8737848401,8.8757553101,-0.4202193961,0.4113755033,0.38233013,1898,1901,1473,1523,14.6990003586,863,17.138671875,251.921344037
103.673532009,3.1248481274,3.7448656559,0.0546930395,-2.1598849297,-0.8110897541,10.3416185379,-0.4417125947,0.4163141027,0.3810229451,1898,1901,1474,1523,14.6990003586,909,19.384765625,284.936676873
103.771508932,3.2450063229,4.3409132958,0.0133379418,0.6853836179,-1.1671284437,13.1772451401,-0.4494438804,0.4060376504,0.3807964182,1898,1901,1475,1523,14.6990003586,855,16.748046875,246.179547021
103.873699903,3.3166286945,4.7364974022,-0.0225749016,-2.5063858032,-1.8375314474,13.9119825363,-0.4513003308,0.4034609536,0.3777793146,1898,1901,1473,1523,14.6990003586,805,14.306640625,210.293315677
103.972329855,3.394854784,5.1600461006,-0.0692600012,0.7941895127,0.3235347569,9.4035253525,-0.4228185951,0.3846904168,0.3769957393,1898,1901,1474,1523,14.6990003586,821,15.087890625,221.776909707
104.074376822,3.4543755055,5.4900846481,-0.1064757183,-1.35024333,0.1591043025,7.1560983658,-0.3782792381,0.3525635422,0.3824685398,1898,1901,1473,1523,14.7010002136,665,7.470703125,109.826808236
104.172580957,3.5173041821,5.8487691879,-0.1295024604,-3.7687833309,0.2370640934,11.141002655,-0.3062181564,0.2952949031,0.3929438519,1898,1901,1474,1523,14.7010002136,799,14.013671875,206.014993228
104.275038004,3.5409402847,6.0336084366,-0.1537849009,-1.833468318,-0.9174729586,6.1193184853,-0.258472026,0.2649160867,0.3977924465,1898,1900,1474,1523,14.7159996033,749,11.572265625,170.297456347
104.374231815,3.5470366478,6.1769132614,-0.1605457813,-0.7278955579,-2.2850756645,5.8950209618,-0.2215945837,0.2447909276,0.4009090139,1898,1900,1473,1525,14.7159996033,783,13.232421875,194.728315063
104.476306915,3.5568370819,6.3438391686,-0.2066613287,-3.2084202766,-2.6656684876,12.7866010666,-0.201914803,0.2334809151,0.4020423024,1898,1900,1473,1525,14.7159996033,752,11.71875,172.453120351
104.574306965,3.5750107765,6.4429445267,-0.2080899924,-1.9780262709,-2.0919606686,10.5117321014,-0.1831573612,0.2226600003,0.4044819741,1898,1901,1473,1523,14.7629995346,715,9.912109375,146.33246609
104.67638588,3.5873339176,6.5442385674,-0.2146797627,-3.4093647003,3.5047204495,10.94510746,-0.1634500236,0.2100810155,0.4074411666,1898,1901,1473,1523,14.7629995346,725,10.400390625,153.540961957
104.774825811,3.5882513523,6.6021375656,-0.22895962,-2.2160494328,-1.1118359566,12.8926172256,-0.1505435307,0.2031855394,0.4092531441,1898,1901,1473,1523,14.8030004501,747,11.474609375,169.858647743
104.877188921,3.6089110375,6.6514816284,-0.2500519454,-1.6994863749,-0.9452841282,7.6386933327,-0.1417563673,0.2011483326,0.4102276443,1898,1898,1474,1523,14.8030004501,733,10.791015625,159.739409154
104.975789785,3.6108837128,6.696908474,-0.2456864119,0.85566324,-3.050262928,11.3123807907,-0.1334272943,0.1877103137,0.4117223206,1898,1898,1473,1523,14.8030004501,752,11.71875,173.472661525
105.073854923,3.6191008091,6.7191443443,-0.2716533542,-5.6368021965,-0.277918011,15.7732419968,-0.1320756084,0.1855736617,0.4122443973,1898,1898,1473,1523,14.8400001526,709,9.619140625,142.748048343
105.176414967,3.6034369469,6.757516861,-0.2765986621,-3.633099556,-0.5361314416,15.4806861877,-0.1231333645,0.1829780133,0.414218455,1898,1898,1473,1523,14.8400001526,749,11.572265625,171.732423641
105.274500847,3.5834677219,6.7934260368,-0.2499847412,-4.7856202126,2.1541945934,9.5086565018,-0.1172629736,0.1762711062,0.4165003261,1898,1898,1474,1523,14.8719997406,635,6.005859375,89.3191390671
105.37742281,3.6030654907,6.807349205,-0.2530817688,-2.8999483585,0.1581325084,3.5554881096,-0.1194747751,0.1754515374,0.4173948687,1898,1898,1473,1523,14.8719997406,747,11.474609375,170.650387648
105.475170851,3.5941755772,6.8404145241,-0.2073029876,3.0564880371,-5.3810892105,0.0347330458,-0.1308812946,0.1659628883,0.419064766,1898,1865,1473,1523,14.8719997406,588,3.7109375,55.1890615374
105.577935934,3.587798357,6.8466272354,-0.1972531527,-3.2595431805,-0.2487124503,13.2446880341,-0.1515060481,0.1521837134,0.4196451556,1887,1806,1474,1523,14.8879995346,776,12.890625,191.915619001
105.675814867,3.3765182495,6.9785776138,-0.1763346344,0.0320970155,-0.4159454107,8.0154447556,-0.2862258099,-0.0017421604,0.434067848,1801,1682,1473,1523,14.8879995346,717,10.009765625,149.025385966
105.778266907,3.1395263672,6.9964008331,-0.1920708716,-2.3500525951,0.8915942311,10.9421024323,-0.2812892518,-0.1399825821,0.4533075421,1730,1555,1474,1523,14.9060001373,727,10.498046875,156.48388816
105.876608849,2.5840802193,6.8796739578,-0.0979061648,-0.5893704295,0.8485745788,9.3985929489,-0.1422600644,-0.3676215021,0.4645130897,1512,1485,1475,1523,14.9060001373,690,8.69140625,129.554102756
105.978957891,2.1863889694,6.6382441521,-0.064031288,-0.9142131209,-0.7829889059,10.4082431793,0.0368751812,-0.467945466,0.4441098585,1485,1483,1473,1523,14.9060001373,730,10.64453125,158.667384274
106.077148914,1.6881592274,6.0546321869,0.001807072,0.0840374306,1.3624197245,11.3189649582,0.2800839081,-0.4916795398,0.4039306892,1484,1486,1474,1523,14.9189996719,723,10.302734375,153.70649076
106.175467968,1.5462290049,5.8070039749,0.0100203129,-2.3671002388,-0.6135540009,13.8594360352,0.3313298883,-0.4921252612,0.3943027486,1484,1486,1473,1523,14.9189996719,718,10.05859375,150.064156856
106.278203964,1.1678336859,4.8954133987,0.0079636397,1.6270301342,0.463455528,9.5951404572,0.5203003171,-0.486513068,0.3555097257,1486,1484,1474,1523,14.9379997253,758,12.01171875,179.431051388
106.376246929,0.8945687413,3.8340744972,-0.0511830077,-0.0638372004,-0.05987918,14.2890090942,0.6338352459,-0.4638739341,0.3417619279,1493,1483,1474,1523,14.9379997253,839,15.966796875,238.512007333
106.4786098,0.7470616698,3.0813148022,-0.1398566663,0.9968411326,-0.7844109535,12.1837759018,0.65481378,-0.4564989116,0.3405157297,1493,1483,1473,1525,14.9379997253,886,18.26171875,272.793549671
106.577264786,0.6879803538,2.7459094524,-0.1961116493,1.0839027166,0.5579910874,9.7378883362,0.647082496,-0.4502106323,0.3441126342,1493,1483,1473,1523,14.9270000458,781,13.134765625,196.062647086
106.679531813,0.4957891703,1.907531023,-0.2526399493,1.3371363878,-0.3552735746,4.8211140633,0.4079878199,-0.359201551,0.3776526446,1493,1483,1473,1523,14.9270000458,896,18.75,279.881250859
106.777628899,0.252143234,1.237867713,-0.1879460067,1.336399436,2.6114263535,8.0685920715,0.2471552464,-0.2632549884,0.3900062346,1490,1485,1475,1524,14.8879995346,729,10.595703125,157.748823194
106.879987955,0.1317511201,0.8686571717,-0.1041202396,0.4689997435,1.0541530848,10.0129470825,0.1611283489,-0.1230615638,0.4012848859,1489,1485,1524,1523,14.8879995346,804,14.2578125,212.270305864
106.978730917,0.1053491533,0.6880698204,-0.0403488055,-1.5751929283,0.906327188,13.4797544479,0.1105810539,-0.047223903,0.3932561679,1488,1489,1560,1523,14.8879995346,715,9.912109375,147.571479762
107.080704927,0.1135521904,0.493716836,0.1057822853,1.1621990204,-1.2278623581,5.1914601326,0.0570511806,-0.0052275452,0.3687311678,1488,1491,1559,1525,14.8459997177,754,11.81640625,175.426363852
107.179612875,0.1146538109,0.4531094134,0.1198199317,1.7307519913,-2.2842321396,9.147195816,0.0505624133,-0.0014057423,0.3615762883,1488,1490,1560,1525,14.8459997177,807,14.404296875,213.84618734
107.277806997,0.1207016259,0.3485718071,0.1257034242,1.2448967695,0.2309031487,8.6585521698,0.0356372443,0.0031416773,0.3291017125,1486,1491,1559,1523,14.8280000687,794,13.76953125,204.174610321
107.37974,0.1161271632,0.2717562914,0.1174098626,-0.9742722511,-0.305803299,8.9971923828,0.025381036,0.0012338476,0.2957802284,1485,1488,1559,1525,14.8280000687,778,12.98828125,192.590235267
107.478379011,0.1227190867,0.2246933579,0.1093672141,0.6019411683,-0.5554715395,9.561624527,0.0173407967,-0.0019120884,0.2735779805,1485,1489,1560,1523,14.8280000687,787,13.427734375,199.106446235
107.580710888,0.1130820364,0.1646963209,0.1184989586,0.3184386492,-0.2566294074,7.9766077995,0.0094872043,-0.0064652538,0.2560156077,1485,1489,1559,1525,14.8389997482,784,13.28125,197.080465406
107.679033995,0.1079908013,0.1343492717,0.1100524291,0.5557071567,-0.4746491909,8.5787849426,0.0032785228,-0.0124777689,0.2426104304,1485,1489,1559,1525,14.8389997482,789,13.525390625,200.703268079
107.781015873,0.0974784046,0.1032570302,0.1050984785,-1.0457593203,-0.7731979489,12.2851819992,-0.0003448987,-0.0128485794,0.2367938192,1485,1487,1560,1523,14.8389997482,798,13.96484375,207.22431289
107.879753828,0.0705435872,0.068977125,0.1337404251,-0.3096958101,-1.2649747133,6.5873126984,-0.0057886679,-0.0162724292,0.2298344956,1485,1489,1559,1523,14.8529996872,751,11.669921875,173.333345959
107.981855869,0.0585773811,0.0444983132,0.1160416752,-0.8131253123,-0.0300738309,15.665263176,-0.0086283894,-0.0179974416,0.2285250322,1485,1486,1560,1523,14.8529996872,807,14.404296875,213.947016979
108.080237865,0.0247559696,0.0196486861,0.118656233,-0.1254168004,-2.6613268852,10.6772689819,-0.0143958573,-0.0176487402,0.229447638,1485,1489,1560,1523,14.8629999161,759,12.060546875,179.255907191
108.182601929,0.0072589954,0.0008631272,0.0742401853,0.4467830658,1.0806367397,6.9282398224,-0.0182797502,-0.0182384878,0.231299296,1485,1486,1521,1525,14.8629999161,887,18.310546875,272.149656667
108.28091979,-0.0222843792,-0.0115163522,-0.0449377857,0.6260627508,-0.0380372368,11.4854822159,-0.0217745471,-0.019358188,0.234059408,1485,1489,1512,1525,14.8839998245,835,15.771484375,234.74277067
108.383117914,-0.0357938744,-0.017741818,-0.0209438317,-1.70475173,-0.1783642918,15.3521871567,-0.0217504564,-0.0175500741,0.2346776994,1485,1489,1512,1525,14.8839998245,804,14.2578125,212.213278748
108.48167181,-0.0618782826,-0.028467115,0.0482767709,2.195227623,0.1425793022,6.1766524315,-0.0227343202,-0.0123222566,0.2400406198,1485,1489,1513,1525,14.8839998245,840,16.015625,238.376559689
108.580344915,-0.0901655704,-0.0357005224,0.0871525854,2.0690290928,-0.158441931,6.8428382874,-0.026490854,-0.0076399441,0.2463745277,1486,1484,1513,1523,14.8760004044,823,15.185546875,225.900201454
108.682397842,-0.1010723412,-0.038833715,0.120925501,0.307182461,-1.1736112833,9.6167287827,-0.0285069686,-0.0035993466,0.2507322067,1486,1485,1513,1525,14.8760004044,812,14.6484375,217.910162174
108.780591011,-0.1004192904,-0.0368625075,0.1431149542,-1.2657709122,-0.3885249794,9.1893281937,-0.0295845889,-0.0003408778,0.2521853651,1485,1485,1513,1525,14.8780002594,786,13.37890625,199.051370658
108.883142948,-0.1037603095,-0.0450008288,0.1808452606,-0.9136821628,-0.498918891,10.4851179123,-0.0295454641,-0.0002330825,0.2520889135,1486,1482,1513,1523,14.8780002594,779,13.037109375,193.966116663
108.981350899,-0.099948734,-0.0352424942,0.176872164,1.487065196,-0.5571341515,5.5699315071,-0.0292776638,-0.0012124182,0.2501419552,1488,1481,1512,1525,14.8780002594,844,16.2109375,241.18633233
109.083530903,-0.1058647037,-0.0367335379,0.183243379,-0.2648772597,1.8042912483,8.2597227097,-0.0283322114,-0.0027784955,0.2488081172,1539,1403,1512,1525,14.876999855,815,14.794921875,220.104050589
109.182156801,-0.1098050326,-0.0366711468,0.2037647963,-0.0198005568,-0.4793037176,10.1780166626,-0.0294758431,0.0081317925,0.2496990113,1602,1290,1513,1523,14.876999855,784,13.28125,197.585154324
109.284832001,-0.1736121327,-0.0344854593,0.2220754325,0.1775970757,0.7277753949,10.4642038345,-0.0575979312,-0.0813416416,0.2555088049,1761,1100,1513,1523,14.8819999695,821,15.087890625,224.537987821
109.382892847,-0.2713959515,-0.0264487229,0.2325165719,-1.6040802002,-1.8497976065,15.0995416641,-0.0829274276,-0.1330193419,0.2596607326,1844,1100,1513,1523,14.8819999695,806,14.35546875,213.6380855
109.485028982,-0.439178586,0.0072159432,0.2419565469,0.3193148673,-0.9478327632,13.6848859787,-0.1343664542,-0.209695961,0.2674106598,1898,1100,1513,1525,14.8819999695,823,15.185546875,225.991308131
109.583631992,-0.785415709,0.1084047183,0.2446234077,0.4952388108,-0.1146049872,12.5100688934,-0.2046720142,-0.2608075901,0.2731247786,1898,1100,1513,1523,14.8850002289,827,15.380859375,228.944095318
109.681901932,-1.0368243456,0.2061454654,0.2447190136,-0.6954432726,-1.3765684366,12.6663541794,-0.2399799564,-0.2760553811,0.2737997223,1898,1100,1513,1523,14.8850002289,811,14.599609375,217.315188889
109.784032822,-1.4509322643,0.3999864757,0.2407408655,0.0745108426,-0.444427669,11.4718828201,-0.2965819805,-0.3016396934,0.2726939848,1898,1100,1513,1523,14.8660001755,850,16.50390625,245.347073209
109.882414818,-1.7407479286,0.5566321611,0.2155832201,-0.4416208267,-0.500952065,11.8483991623,-0.3177506591,-0.3122641514,0.2702044546,1898,1100,1512,1525,14.8660001755,839,15.966796875,237.362405146
109.984778881,-2.0085196495,0.7078176737,0.2145874649,0.3677460849,-0.7876556516,9.3840408325,-0.3350148166,-0.3191228011,0.266696533,1898,1102,1512,1525,14.8660001755,840,16.015625,238.088284061
110.083195925,-2.529361248,1.0309581757,0.195646435,-1.1943119764,-0.2103749216,12.4247426987,-0.3590790461,-0.3342715572,0.2599178106,1898,1102,1513,1525,14.845000267,880,17.96875,266.746098548
110.185851812,-2.8515999317,1.2374979258,0.1888140142,0.2350235581,-1.4824553728,11.3584480286,-0.3693271168,-0.3438233184,0.2546494173,1898,1102,1513,1525,14.845000267,873,17.626953125,261.672123847
110.283712864,-3.1971998215,1.4667775631,0.1792533398,1.3437924385,1.5094803572,10.0820236206,-0.3768194266,-0.3532267394,0.2508234472,1898,1102,1512,1525,14.845000267,836,15.8203125,234.852543287
110.386308908,-3.5116670132,1.6699186564,0.1627004594,0.3590473235,-1.6336175203,8.7638692856,-0.3853351543,-0.3651017632,0.248390904,1898,1102,1514,1523,14.8249998093,855,16.748046875,248.289791728
110.484852791,-3.9829332829,1.9850165844,0.1423234493,2.3078980446,-2.0595309734,8.1735277176,-0.3936454531,-0.3825734191,0.2440776405,1898,1103,1512,1525,14.8249998093,896,18.75,277.968746424
