,timestamp,raw_output,rc0,rc1,rc2,rc3,vel_x,vel_y,vel_z,acc_x,acc_y,acc_z,current,voltage,power
0,6.899,535,1488,1486,1099,1099,-0.139601,-0.128254,-0.0136596,0.661681,0.261549,-9.59117,1.123046875,16.3131,18.3203759766
1,7.001,534,1488,1486,1099,1099,-0.140383,-0.12476,-0.0154981,0.105626,0.408089,-9.72593,1.07421875,16.3131,17.5238378906
2,7.099,540,1488,1486,1099,1099,-0.135969,-0.126409,-0.0136184,0.580082,0.435807,-9.89896,1.3671875,16.3094,22.2980078125
3,7.201,536,1488,1486,1099,1099,-0.137446,-0.124662,-0.0138686,0.634323,0.473305,-9.60417,1.171875,16.3094,19.112578125
4,7.3,540,1488,1486,1099,1099,-0.135254,-0.124129,-0.013681,0.410527,0.465669,-9.80834,1.3671875,16.3094,22.2980078125
5,7.402,540,1488,1486,1098,1099,-0.132727,-0.124192,-0.0130474,0.462104,0.449466,-9.79847,1.3671875,16.3056,22.2928125
6,7.5,542,1488,1486,1098,1099,-0.130967,-0.122681,-0.0114251,0.529892,0.507457,-9.70061,1.46484375,16.3056,23.88515625
7,7.603,539,1488,1486,1098,1099,-0.130668,-0.120043,-0.0123227,0.56082,0.573633,-9.73469,1.318359375,16.3056,21.496640625
8,7.701,545,1488,1486,1099,1099,-0.12939,-0.118244,-0.0117011,0.378608,0.690426,-10.0694,1.611328125,16.3023,26.2683544922
9,7.803,548,1488,1486,1099,1099,-0.128249,-0.117159,-0.0103209,0.578254,0.373101,-9.83952,1.7578125,16.3023,28.6563867187
10,7.902,543,1488,1486,1099,1099,-0.127273,-0.116488,-0.00844631,0.408253,0.471997,-9.70751,1.513671875,16.3023,24.6763330078
11,8.004,549,1488,1486,1099,1099,-0.126243,-0.115417,-0.00780761,0.58106,0.484746,-9.90756,1.806640625,16.2934,29.4363183594
12,8.102,583,1488,1486,1099,1099,-0.126418,-0.114962,-0.00653976,0.414805,0.346558,-10.0746,3.466796875,16.2934,56.4859082031
13,8.205,441,1488,1486,1099,1099,-0.125607,-0.114836,-0.00545931,0.312163,0.172315,-9.84198,-3.466796875,16.2934,-56.4859082031
14,8.303,542,1488,1486,1099,1099,-0.126921,-0.113355,-0.00557774,1.00421,0.515146,-10.0083,1.46484375,16.2877,23.8589355469
15,8.406,544,1488,1486,1099,1099,-0.121977,-0.113513,0.00251134,0.679451,0.131406,-8.69455,1.5625,16.2877,25.44953125
16,8.504,543,1488,1486,1099,1099,-0.123509,-0.114491,0.00308903,0.478581,0.576014,-9.89755,1.513671875,16.2877,24.6542333984
17,8.606,542,1488,1486,1100,1099,-0.122742,-0.114221,0.00573305,0.400622,0.309115,-9.84128,1.46484375,16.2841,23.8536621094
18,8.705,541,1488,1486,1101,1099,-0.122154,-0.11431,0.00699686,0.578189,0.220069,-9.53511,1.416015625,16.2841,23.0585400391
19,8.807,539,1488,1486,1101,1099,-0.120864,-0.114046,0.0101776,0.485476,0.286848,-9.97945,1.318359375,16.2841,21.4682958984
20,8.905,540,1488,1486,1102,1099,-0.121171,-0.115299,0.0116789,0.459091,0.052233,-10.1702,1.3671875,16.2877,22.2683398438
21,9.008,544,1488,1486,1102,1099,-0.12046,-0.113258,0.0139781,0.602981,0.64704,-9.94814,1.5625,16.2877,25.44953125
22,9.106,543,1488,1486,1106,1119,-0.121652,-0.114171,0.0195511,0.311421,0.195628,-9.52547,1.513671875,16.2877,24.6542333984
23,9.208,541,1488,1486,1165,1520,-0.120381,-0.113531,0.0194948,0.569863,0.584626,-9.60643,1.416015625,16.2886,23.0649121094
24,9.307,539,1488,1486,1165,1520,-0.120236,-0.113538,0.0200954,0.464333,0.269849,-9.7901,1.318359375,16.2886,21.4742285156
25,9.409,541,1488,1486,1164,1518,-0.119643,-0.113585,0.0218588,0.58154,0.697931,-9.53216,1.416015625,16.2886,23.0649121094
26,9.508,542,1488,1486,1164,1518,-0.118857,-0.112962,0.0232382,0.475338,0.494418,-9.30932,1.46484375,16.2846,23.8543945313
27,9.61,543,1488,1486,1165,1517,-0.120018,-0.114517,0.0235162,0.706365,0.433144,-9.74729,1.513671875,16.2846,24.6495410156
28,9.712,541,1488,1486,1171,1516,-0.12073,-0.113494,0.0233423,0.502228,0.450071,-9.76891,1.416015625,16.2846,23.0592480469
29,9.81,546,1488,1486,1206,1517,-0.122627,-0.114124,0.0212694,0.400402,0.325181,-10.1214,1.66015625,16.2818,27.0303320313
30,9.913,539,1488,1486,1212,1517,-0.123022,-0.111468,0.0229043,0.508373,0.47481,-9.60214,1.318359375,16.2818,21.4652636719
31,10.011,542,1488,1485,1216,1516,-0.124642,-0.111704,0.0218472,0.305921,0.379514,-9.95953,1.46484375,16.2818,23.8502929688
32,10.113,540,1488,1486,1223,1515,-0.125237,-0.109998,0.0255535,0.612582,0.378061,-9.27458,1.3671875,16.2797,22.2574023437
33,10.212,542,1488,1486,1225,1515,-0.126047,-0.11039,0.0230648,0.387985,0.615192,-10.0906,1.46484375,16.2797,23.8472167969
34,10.314,542,1488,1486,1226,1515,-0.124703,-0.110217,0.0254265,0.657752,0.859848,-9.80607,1.46484375,16.2797,23.8472167969
35,10.413,539,1488,1485,1226,1516,-0.125299,-0.111813,0.0270437,0.475081,0.193473,-9.35738,1.318359375,16.2726,21.4531347656
36,10.515,537,1488,1486,1226,1516,-0.125457,-0.111205,0.0243913,0.661196,0.452317,-9.47047,1.220703125,16.2726,19.8640136719
37,10.614,542,1488,1486,1227,1518,-0.124101,-0.11415,0.0242062,0.529292,0.141057,-9.76696,1.46484375,16.2726,23.8368164063
38,10.716,540,1488,1486,1226,1516,-0.121393,-0.112381,0.0222482,0.600684,0.77724,-9.47426,1.3671875,16.2821,22.2606835937
39,10.814,538,1488,1484,1226,1516,-0.12111,-0.112871,0.0221088,0.396576,0.525958,-9.65482,1.26953125,16.2821,20.6706347656
40,10.916,541,1489,1486,1227,1516,-0.120342,-0.113945,0.0215342,0.51497,0.371078,-10.0215,1.416015625,16.2821,23.0557080078
41,11.015,543,1488,1486,1240,1518,-0.119721,-0.11384,0.0218169,0.254649,0.280376,-9.92516,1.513671875,16.286,24.6516601562
42,11.117,541,1488,1486,1253,1516,-0.118427,-0.113938,0.020544,0.603626,0.419168,-9.61024,1.416015625,16.286,23.0612304687
43,11.215,544,1488,1484,1258,1516,-0.118427,-0.113938,0.020544,0.603626,0.419168,-9.61024,1.5625,16.286,25.446875
44,11.318,542,1488,1486,1279,1518,-0.117239,-0.1161,0.0202352,0.585785,0.831076,-10.1309,1.46484375,16.2821,23.8507324219
45,11.416,540,1488,1486,1301,1518,-0.117239,-0.1161,0.0202352,0.585785,0.831076,-10.1309,1.3671875,16.2821,22.2606835937
46,11.519,537,1488,1486,1331,1518,-0.115552,-0.118373,0.020721,0.576812,0.63445,-9.71212,1.220703125,16.2821,19.8756103516
47,11.617,543,1488,1486,1351,1518,-0.115552,-0.118373,0.020721,0.576812,0.63445,-9.71212,1.513671875,16.2852,24.6504492188
48,11.719,544,1488,1486,1362,1518,-0.114317,-0.117316,0.0211682,0.59369,0.508369,-9.43991,1.5625,16.2852,25.445625
49,11.817,543,1488,1486,1378,1518,-0.114485,-0.118779,0.0197231,0.403903,0.069049,-9.9916,1.513671875,16.2852,24.6504492188
50,11.919,539,1488,1486,1397,1518,-0.111475,-0.117463,0.018682,0.663212,0.356778,-9.49235,1.318359375,16.2913,21.4777880859
51,12.018,546,1488,1486,1410,1518,-0.110792,-0.118408,0.0171199,0.259446,0.350562,-9.68432,1.66015625,16.2913,27.0461035156
52,12.12,546,1488,1486,1429,1518,-0.108054,-0.117097,0.0143558,0.477296,0.783933,-9.73958,1.66015625,16.2913,27.0461035156
53,12.219,547,1488,1486,1435,1518,-0.10675,-0.118948,0.0127542,0.114043,0.333796,-9.55025,1.708984375,16.2844,27.8297851563
54,12.321,545,1488,1486,1434,1517,-0.104643,-0.118778,0.0104386,0.759229,0.764227,-9.18673,1.611328125,16.2844,26.2395117188
55,12.42,540,1488,1486,1433,1517,-0.10351,-0.120242,0.00774623,0.464343,0.53394,-9.58091,1.3671875,16.2844,22.263828125
56,12.522,541,1488,1486,1434,1517,-0.103336,-0.121669,0.00510692,0.53831,0.542192,-9.55989,1.416015625,16.276,23.0470703125
57,12.62,543,1488,1486,1434,1517,-0.10284,-0.122315,0.00476278,0.21906,0.473325,-10.1824,1.513671875,16.276,24.6365234375
58,12.723,541,1488,1485,1433,1517,-0.104625,-0.123512,0.00457348,0.633668,0.430501,-9.99625,1.416015625,16.276,23.0470703125
59,12.821,545,1488,1485,1433,1517,-0.105515,-0.123678,0.00650484,0.401403,0.409117,-9.91819,1.611328125,16.2732,26.2214648437
60,12.923,544,1488,1485,1433,1517,-0.107508,-0.123625,0.00650953,0.52249,0.403466,-10.0935,1.5625,16.2732,25.426875
61,13.022,543,1488,1485,1434,1517,-0.107947,-0.122953,0.00820201,0.375771,0.5914,-10.0929,1.513671875,16.2732,24.6322851562
62,13.124,540,1488,1486,1433,1517,-0.109752,-0.122653,0.0095475,0.50346,0.0892909,-10.2083,1.3671875,16.2838,22.2630078125
63,13.222,544,1488,1486,1433,1517,-0.110291,-0.121833,0.0130469,0.442393,0.297677,-9.58136,1.5625,16.2838,25.4434375
64,13.325,543,1488,1485,1433,1519,-0.11369,-0.119061,0.0137657,0.539619,0.617678,-9.80371,1.513671875,16.2838,24.6483300781
65,13.423,543,1488,1486,1434,1517,-0.114276,-0.11771,0.0134849,0.65596,0.449687,-9.6616,1.513671875,16.2818,24.6453027344
66,13.526,543,1488,1486,1435,1517,-0.11753,-0.114965,0.0144348,0.284778,0.313416,-9.57493,1.513671875,16.2818,24.6453027344
67,13.624,541,1488,1486,1464,1518,-0.119218,-0.114125,0.0125982,0.633561,0.603866,-9.80116,1.416015625,16.2818,23.0552832031
68,13.726,540,1488,1486,1475,1517,-0.122096,-0.111503,0.0163105,0.566733,0.363715,-9.2558,1.3671875,16.2804,22.258359375
69,13.824,544,1488,1485,1484,1517,-0.124957,-0.112456,0.0149445,0.575612,0.431741,-9.8412,1.5625,16.2804,25.438125
70,13.927,543,1488,1485,1515,1517,-0.127748,-0.110896,0.0164638,0.362184,0.414255,-9.7547,1.513671875,16.2804,24.6431835937
71,14.025,538,1488,1486,1550,1518,-0.129503,-0.111327,0.0172304,0.612849,0.492711,-9.68404,1.26953125,16.2801,20.6680957031
72,14.127,635,1488,1485,1578,1517,-0.132894,-0.109875,0.0206064,0.519659,0.381101,-9.16698,6.005859375,16.2801,97.7759912109
73,14.226,558,1488,1486,1603,1518,-0.133828,-0.10868,0.0194862,0.606503,0.798642,-10.1423,2.24609375,16.2801,36.5666308594
74,14.328,658,1488,1485,1622,1517,-0.138391,-0.106613,0.0183898,0.621911,0.876955,-10.2204,7.12890625,16.218,115.616601562
75,14.427,786,1488,1485,1624,1518,-0.138973,-0.108773,0.0113732,0.736669,0.261864,-8.64506,13.37890625,16.218,216.979101563
76,14.529,819,1488,1486,1628,1518,-0.108534,-0.0653328,-0.0850555,0.509952,-0.391311,-11.0486,14.990234375,16.218,243.111621094
77,14.627,831,1488,1485,1634,1517,-0.0805622,-0.053191,-0.330511,-1.43573,0.657896,-15.4226,15.576171875,16.1055,250.862036133
78,14.73,893,1488,1485,1643,1517,-0.0437515,-0.0260103,-0.572401,-0.284775,1.21197,-14.6531,18.603515625,16.1055,299.618920898
79,14.828,901,1488,1485,1645,1517,-0.00768016,0.0100684,-0.854259,0.880015,-1.62789,-10.3076,18.994140625,16.1055,305.910131836
80,14.93,747,1488,1485,1645,1517,0.021906,0.0675279,-1.15661,0.264676,2.32059,-16.505,11.474609375,15.9937,183.521459961
81,15.029,811,1488,1485,1647,1517,0.0386255,0.0996253,-1.23271,-0.196116,-1.11211,-9.35031,14.599609375,15.9937,233.501772461
82,15.131,778,1488,1485,1645,1517,0.0592916,0.123554,-1.23859,-0.733174,0.176936,-12.407,12.98828125,15.9937,207.730673828
83,15.229,783,1488,1485,1645,1519,0.0940883,0.126024,-1.23017,0.0378965,-0.863109,-8.75232,13.232421875,15.9274,210.758076172
84,15.332,770,1488,1485,1645,1517,0.128173,0.123592,-1.21464,0.518681,0.67838,-9.49183,12.59765625,15.9274,200.647910156
85,15.431,748,1488,1485,1645,1519,0.163709,0.119502,-1.21339,1.56091,0.226541,-7.8754,11.5234375,15.9274,183.538398438
86,15.532,782,1488,1485,1645,1519,0.195794,0.12172,-1.22376,0.363707,0.198666,-10.2983,13.18359375,15.8712,209.239453125
87,15.631,821,1488,1486,1645,1519,0.235978,0.119554,-1.23155,-0.545789,1.1239,-11.8566,15.087890625,15.8712,239.462929688
88,15.733,782,1488,1486,1645,1519,0.283376,0.108037,-1.22376,0.584267,-0.13452,-9.39862,13.18359375,15.8712,209.239453125
89,15.831,785,1488,1486,1644,1519,0.318567,0.0981627,-1.22435,-0.00674747,-1.08814,-9.97634,13.330078125,15.8182,210.857841797
90,15.934,748,1488,1486,1633,1521,0.340795,0.0915958,-1.21503,-0.0311344,0.218875,-9.60964,11.5234375,15.8182,182.280039062
91,16.032,580,1488,1486,1605,1518,0.366909,0.0815939,-1.14355,1.48632,0.129303,-6.13041,3.3203125,15.8182,52.5213671875
92,16.134,845,1488,1486,1605,1518,0.374624,0.0720121,-0.821225,-0.0102862,0.373131,-7.19197,16.259765625,15.8385,257.530297852
93,16.233,675,1488,1486,1569,1521,0.390627,0.0800648,-0.583917,0.577129,0.890451,-7.43101,7.958984375,15.8385,126.058374023
94,16.335,650,1488,1486,1569,1521,0.395675,0.0931374,-0.332485,0.335249,1.52117,-5.7471,6.73828125,15.8385,106.724267578
95,16.434,727,1488,1485,1542,1521,0.383105,0.100458,-0.00664599,1.35081,0.0269641,-6.08505,10.498046875,15.8321,166.20612793
96,16.536,767,1488,1485,1531,1521,0.360772,0.114386,0.112873,1.21888,-0.907203,-7.12653,12.451171875,15.8321,197.128198242
97,16.634,759,1488,1485,1531,1521,0.329779,0.124018,0.122011,-0.589182,1.17746,-13.1258,12.060546875,15.8321,190.94378418
98,16.736,751,1488,1486,1514,1521,0.29531,0.128366,0.150675,0.643612,1.18783,-9.36713,11.669921875,15.806,184.454785156
99,16.835,755,1488,1486,1514,1521,0.272962,0.130039,0.159201,1.21357,-0.684086,-8.39432,11.865234375,15.806,187.541894531
100,16.937,779,1488,1486,1483,1518,0.247225,0.128686,0.167305,0.0437748,-0.317369,-10.3487,13.037109375,15.806,206.064550781
101,17.036,784,1488,1486,1480,1521,0.226217,0.121289,0.156153,-0.216433,0.489677,-8.94284,13.28125,15.8044,209.9021875
102,17.138,670,1488,1486,1449,1521,0.198797,0.114625,0.258984,-0.486511,-0.712749,-8.25805,7.71484375,15.8044,121.928476562
103,17.236,736,1488,1485,1433,1521,0.158208,0.117465,0.540616,0.50725,-1.086,-6.02071,10.9375,15.8044,172.860625
104,17.339,811,1488,1486,1430,1518,0.115283,0.133705,0.656134,0.234255,-0.3172,-10.1514,14.599609375,15.7848,230.451914063
105,17.437,763,1488,1484,1430,1521,0.0797165,0.15007,0.638169,-0.837619,1.1252,-12.4189,12.255859375,15.7848,193.456289063
106,17.54,762,1488,1484,1430,1521,0.0484711,0.149145,0.633973,-1.15419,-0.349692,-11.9853,12.20703125,15.7848,192.685546875
107,17.638,774,1488,1483,1430,1521,0.0268479,0.153626,0.633046,0.852807,-1.15981,-8.8785,12.79296875,15.7121,201.004404297
108,17.74,976,1488,1486,1458,1517,0.00669357,0.159997,0.559613,-0.0562256,1.99131,-15.9194,22.65625,15.7121,355.977265625
109,17.838,780,1488,1489,1469,1518,-0.00607519,0.159453,0.225196,1.19655,-0.881985,-9.60397,13.0859375,15.7121,205.607558594
110,17.941,779,1488,1489,1469,1517,-0.0263231,0.157483,0.167688,-0.129213,0.755072,-11.7639,13.037109375,15.692,204.578320313
111,18.039,784,1488,1488,1471,1517,-0.0443155,0.144615,0.166869,0.752744,-0.1837,-8.18913,13.28125,15.692,208.409375
112,18.142,753,1488,1490,1470,1519,-0.055629,0.129639,0.163838,1.99941,-0.546189,-8.50005,11.767578125,15.692,184.656835938
113,18.24,731,1488,1490,1470,1519,-0.0632733,0.115399,0.163205,0.470154,0.451409,-10.3426,10.693359375,15.6783,167.653696289
114,18.342,747,1488,1490,1470,1517,-0.0635412,0.0977182,0.167214,1.70772,0.509516,-8.48071,11.474609375,15.6783,179.902368164
115,18.44,755,1488,1488,1470,1520,-0.0662636,0.0823721,0.158221,-0.956802,1.10018,-11.4116,11.865234375,15.6783,186.026704102
116,18.543,783,1488,1488,1470,1520,-0.0662206,0.0589991,0.163254,0.702622,-0.402749,-8.75693,13.232421875,15.6696,207.346757813
117,18.641,772,1488,1488,1469,1518,-0.0651528,0.0514253,0.155998,0.578542,1.54588,-8.18895,12.6953125,15.6696,198.93046875
118,18.743,786,1488,1490,1470,1518,-0.0717748,0.0306936,0.162078,-0.229356,-0.568322,-7.5503,13.37890625,15.6696,209.642109375
119,18.842,761,1488,1490,1470,1520,-0.071833,0.0197787,0.14688,0.215327,0.411334,-10.2178,12.158203125,15.657,190.360986328
120,18.944,803,1488,1490,1474,1517,-0.0740936,0.00646222,0.125454,1.42154,0.10221,-7.29107,14.208984375,15.657,222.470068359
121,19.042,751,1488,1488,1475,1517,-0.0872459,0.000192708,0.0831704,-0.751169,1.23329,-10.7219,11.669921875,15.657,182.715966797
122,19.145,733,1488,1490,1475,1519,-0.0973114,-0.00799891,0.0889646,1.07519,1.5872,-10.5869,10.791015625,15.6556,168.939824219
123,19.243,763,1488,1488,1474,1520,-0.113323,-0.0208491,0.100683,0.363006,0.0681702,-8.3152,12.255859375,15.6556,191.872832031
124,19.346,780,1488,1490,1475,1519,-0.122229,-0.0212215,0.086979,0.837173,1.90351,-10.4054,13.0859375,15.6556,204.868203125
125,19.448,784,1488,1488,1475,1519,-0.125649,-0.0320167,0.0872196,0.765774,-0.00840332,-8.88945,13.28125,15.6578,207.95515625
126,19.546,746,1488,1488,1475,1519,-0.125649,-0.0320167,0.0872196,0.765774,-0.00840332,-8.88945,11.42578125,15.6578,178.902597656
127,19.649,772,1488,1488,1475,1519,-0.128039,-0.0379379,0.0872336,0.796065,-0.72089,-8.47334,12.6953125,15.6578,198.780664062
128,19.747,739,1488,1488,1475,1519,-0.122456,-0.0394125,0.082677,0.213033,0.204446,-9.26496,11.083984375,15.651,173.475439453
129,19.849,773,1488,1488,1475,1519,-0.122456,-0.0394125,0.082677,0.213033,0.204446,-9.26496,12.744140625,15.651,199.458544922
130,19.948,768,1488,1488,1474,1519,-0.112612,-0.0394643,0.0840338,0.273162,0.765482,-9.14198,12.5,15.651,195.6375
131,20.05,789,1488,1488,1475,1519,-0.103663,-0.0466633,0.0783798,-0.763698,-0.780461,-11.1116,13.525390625,15.6402,211.539814453
132,20.148,781,1488,1488,1475,1517,-0.083589,-0.0376401,0.0808098,0.0257687,-0.163518,-11.6404,13.134765625,15.6402,205.430361328
133,20.251,749,1488,1490,1475,1519,-0.0678146,-0.0334546,0.0786588,0.777579,-0.119479,-9.71221,11.572265625,15.6402,180.992548828
134,20.349,755,1488,1490,1475,1520,-0.0571355,-0.0247365,0.0762506,-1.41213,0.566939,-13.8619,11.865234375,15.6425,185.601928711
135,20.452,781,1488,1488,1475,1517,-0.0395462,-0.0184017,0.0745117,-1.39718,-0.359932,-11.6788,13.134765625,15.6425,205.460571289
136,20.55,752,1488,1488,1475,1517,-0.0197991,-0.00611663,0.0856725,-0.212915,-0.503482,-7.50455,11.71875,15.6425,183.310546875
137,20.652,776,1488,1488,1475,1519,-0.00185686,0.011234,0.0772378,0.695406,1.54621,-7.66173,12.890625,15.631,201.493359375
138,20.75,733,1488,1490,1475,1519,0.0219304,0.0212384,0.0916837,1.60359,0.0438081,-5.82269,10.791015625,15.631,168.674365234
139,20.853,791,1488,1490,1475,1520,0.0384029,0.0325721,0.0767373,0.701784,-2.23298,-11.0768,13.623046875,15.631,212.941845703
140,20.951,762,1488,1488,1475,1517,0.0552185,0.0513417,0.085916,2.1745,0.546376,-8.24079,12.20703125,15.6205,190.679931641
141,21.054,767,1488,1490,1475,1520,0.0650107,0.0635782,0.0812743,1.14675,-0.724178,-7.94244,12.451171875,15.6205,194.493530273
142,21.152,771,1488,1488,1475,1517,0.0678551,0.0807602,0.0636754,-0.304505,0.554643,-14.1521,12.646484375,15.6205,197.54440918
143,21.254,756,1488,1488,1475,1517,0.0669697,0.0866562,0.0722966,0.376247,-1.31555,-11.3114,11.9140625,15.6113,185.994003906
144,21.353,759,1488,1490,1475,1520,0.0537551,0.10942,0.0653177,-1.17406,1.10312,-11.0086,12.060546875,15.6113,188.28081543
145,21.455,745,1488,1490,1475,1519,0.0506551,0.126186,0.0653479,-1.17021,-1.89626,-11.2509,11.376953125,15.6113,177.60902832
146,21.554,762,1488,1488,1475,1517,0.0479346,0.150507,0.0674341,0.577247,0.442477,-10.318,12.20703125,15.605,190.490722656
147,21.656,757,1488,1488,1475,1519,0.0350194,0.169778,0.0754123,1.0461,-0.733177,-6.28171,11.962890625,15.605,186.680908203
148,21.754,751,1488,1490,1475,1519,0.0137261,0.197738,0.0643001,-0.369675,0.90956,-11.2587,11.669921875,15.605,182.109130859
149,21.856,753,1488,1488,1475,1517,-0.00268186,0.218244,0.065952,0.832127,0.764759,-8.80668,11.767578125,15.6013,183.589516602
150,21.955,780,1488,1490,1475,1520,-0.0284049,0.240377,0.0646944,0.709986,-1.04453,-8.07666,13.0859375,15.6013,204.157636719
151,22.057,804,1495,1492,1475,1520,-0.0455354,0.265972,0.0586845,1.01223,1.07972,-9.58688,14.2578125,15.6013,222.440410156
152,22.155,794,1524,1491,1475,1517,-0.0627158,0.290582,0.0652219,1.10708,-0.0340911,-7.70959,13.76953125,15.5936,214.7165625
153,22.258,739,1544,1492,1475,1520,-0.072836,0.315813,0.0561898,-0.107715,1.33216,-11.8782,11.083984375,15.5936,172.83921875
154,22.357,696,1545,1502,1475,1519,-0.0723746,0.302251,0.0975442,1.08376,-1.1188,-7.52937,8.984375,15.5936,140.09875
155,22.459,790,1557,1516,1475,1517,-0.0533608,0.269899,0.0798733,1.1362,-0.469344,-10.1087,13.57421875,15.5934,211.668222656
156,22.557,775,1568,1538,1475,1520,-0.0251754,0.193575,0.0815329,-0.0964401,1.16216,-11.7183,12.841796875,15.5934,200.247275391
157,22.659,719,1569,1537,1475,1519,0.00287487,0.0720483,0.0794135,-0.419995,-1.42756,-10.8392,10.107421875,15.5934,157.609072266
158,22.758,751,1564,1523,1475,1519,0.0282633,-0.0588468,0.0510833,-0.671323,0.325577,-13.3538,11.669921875,15.578,181.794042969
159,22.86,787,1557,1527,1475,1520,0.0433899,-0.188656,0.0438288,0.979963,-0.394575,-10.9893,13.427734375,15.578,209.177246094
160,22.958,735,1553,1523,1475,1517,0.0552174,-0.273554,0.0653028,0.920182,-0.417054,-6.26595,10.888671875,15.578,169.623730469
161,23.061,761,1538,1500,1475,1519,0.0608859,-0.307482,0.0681268,1.33632,-2.26757,-8.54582,12.158203125,15.5726,189.334833984
162,23.159,745,1518,1488,1475,1520,0.0661963,-0.289007,0.0798938,0.297454,0.240606,-8.81385,11.376953125,15.5726,177.168740234
163,23.261,765,1489,1486,1475,1520,0.0643786,-0.238233,0.0835082,0.480709,0.810144,-8.56427,12.353515625,15.5726,192.376357422
164,23.359,784,1489,1486,1475,1519,0.0639836,-0.165531,0.0831001,0.684862,1.05784,-9.74782,13.28125,15.5686,206.77046875
165,23.462,755,1489,1488,1475,1519,0.0586948,-0.0992766,0.0771899,0.532209,-0.782502,-7.70571,11.865234375,15.5686,184.725087891
166,23.56,744,1538,1500,1475,1520,0.0541734,-0.0258523,0.0683405,0.233466,1.65052,-9.48927,11.328125,15.5686,176.363046875
167,23.663,726,1563,1512,1475,1519,0.0469898,0.0196752,0.0649966,0.469808,-0.839944,-9.7254,10.44921875,15.5648,162.64
168,23.761,772,1562,1511,1475,1519,0.0466682,0.0179547,0.078481,0.0920311,1.08626,-10.3906,12.6953125,15.5648,197.6
169,23.863,759,1562,1511,1475,1520,0.0498011,-0.0348185,0.0665233,0.883309,-0.78133,-8.08719,12.060546875,15.5648,187.72
170,23.962,744,1562,1511,1475,1520,0.0531948,-0.11665,0.0577057,0.176187,0.404687,-7.68108,11.328125,15.5765,176.452539062
171,24.064,756,1563,1511,1475,1517,0.0476955,-0.18453,0.0363289,-1.15688,1.21603,-13.6333,11.9140625,15.5765,185.579394531
172,24.163,792,1563,1513,1475,1517,0.0492691,-0.250033,0.0481643,-0.657078,0.874443,-9.60001,13.671875,15.5765,212.959960938
173,24.265,736,1559,1511,1475,1519,0.049607,-0.287948,0.0487808,1.29108,0.290953,-10.2313,10.9375,15.5735,170.33515625
174,24.363,755,1557,1506,1475,1517,0.0481251,-0.308947,0.0569498,0.795114,-0.388211,-8.55207,11.865234375,15.5735,184.783227539
175,24.465,799,1538,1500,1475,1520,0.0467867,-0.277112,0.0665703,-0.338865,0.55353,-11.534,14.013671875,15.5735,218.241918945
176,24.564,735,1534,1500,1475,1520,0.0496859,-0.232626,0.0735345,-0.0302162,-0.359842,-10.6681,10.888671875,15.5626,169.456044922
177,24.666,768,1501,1491,1475,1517,0.0512715,-0.160734,0.0739744,-1.16777,0.623107,-11.1632,12.5,15.5626,194.5325
178,24.765,772,1488,1487,1475,1520,0.0623162,-0.0992718,0.0773978,-0.573101,0.276226,-7.72274,12.6953125,15.5626,197.572070312
179,24.867,831,1488,1488,1476,1517,0.0694258,-0.0455454,0.065883,0.537227,0.930486,-9.79185,15.576171875,15.5461,242.148725586
180,24.965,727,1488,1488,1493,1517,0.0752391,-0.0155554,-6.01314e-05,-1.22138,0.27409,-12.2551,10.498046875,15.5461,163.203686523
181,25.067,809,1488,1486,1500,1517,0.0872429,0.00608028,-0.02172,-0.665337,-1.08039,-11.5219,14.501953125,15.5461,225.448813477
182,25.166,803,1488,1488,1500,1517,0.106159,0.0161403,-0.0405018,0.832505,-0.358454,-10.0122,14.208984375,15.5403,220.811879883
183,25.268,789,1488,1486,1500,1519,0.112928,0.0152907,-0.053918,1.11246,-1.39887,-8.21273,13.525390625,15.5403,210.18862793
184,25.367,772,1488,1486,1499,1517,0.123642,0.00924441,-0.06671,1.05906,-0.539374,-10.1652,12.6953125,15.5403,197.288964844
185,25.469,775,1488,1486,1499,1519,0.127473,-0.00277046,-0.0635543,0.921046,0.100702,-8.24815,12.841796875,15.5326,199.466494141
186,25.567,726,1488,1488,1499,1519,0.132536,-0.0182523,-0.0658606,1.3408,-0.967082,-9.73668,10.44921875,15.5326,162.303535156
187,25.669,781,1488,1486,1500,1517,0.133721,-0.0333151,-0.0528534,0.606352,0.162171,-9.28497,13.134765625,15.5326,204.017060547
188,25.768,766,1488,1487,1499,1520,0.131473,-0.0460207,-0.0530251,-0.731426,0.420045,-10.8686,12.40234375,15.5398,192.729941406
189,25.87,775,1488,1487,1499,1520,0.131134,-0.0668156,-0.0462612,-0.519254,-0.09782,-11.1949,12.841796875,15.5398,199.558955078
190,25.969,748,1488,1488,1499,1517,0.131185,-0.0817678,-0.0342157,0.386087,0.999257,-10.113,11.5234375,15.5398,179.071914062
191,26.071,753,1488,1486,1499,1519,0.131538,-0.0963233,-0.0245037,0.500531,0.748433,-9.78108,11.767578125,15.5362,182.823447266
192,26.169,735,1488,1488,1500,1517,0.12989,-0.110452,0.00255395,1.12118,-0.700311,-6.69738,10.888671875,15.5362,169.168583984
193,26.271,754,1488,1486,1499,1519,0.125599,-0.115525,0.00412859,-0.275043,0.553496,-11.0158,11.81640625,15.5362,183.582050781
194,26.37,792,1488,1486,1499,1519,0.122642,-0.119809,0.0127253,0.215042,-0.512702,-10.0153,13.671875,15.5321,212.352929687
195,26.472,767,1488,1488,1500,1517,0.120572,-0.11703,0.027049,-1.2501,0.255739,-12.6254,12.451171875,15.5321,193.39284668
196,26.571,800,1488,1486,1499,1519,0.120572,-0.11703,0.027049,-1.2501,0.255739,-12.6254,14.0625,15.5321,218.42015625
197,26.673,757,1488,1488,1499,1520,0.117113,-0.120401,0.0313643,-0.0216435,-0.0616741,-10.4536,11.962890625,15.5245,185.717895508
198,26.771,755,1488,1488,1500,1519,0.104881,-0.110597,0.0331104,-1.69141,0.830738,-13.4822,11.865234375,15.5245,184.201831055
199,26.874,779,1488,1488,1500,1519,0.0935179,-0.105504,0.0399578,-1.01883,0.404677,-12.2,13.037109375,15.5245,202.394604492
200,26.972,811,1488,1488,1499,1519,0.0893333,-0.092678,0.0494948,0.0650895,-0.226273,-9.15433,14.599609375,15.5228,226.626816406
201,27.074,749,1488,1485,1499,1519,0.0806323,-0.0833621,0.0545715,2.90833,0.428868,-5.34451,11.572265625,15.5228,179.633964844
202,27.173,741,1488,1485,1499,1517,0.0648589,-0.0781765,0.0465583,0.161516,0.0884174,-9.69579,11.181640625,15.5228,173.570371094
203,27.275,755,1488,1485,1500,1519,0.0538526,-0.0686113,0.0233054,-1.57778,0.0467707,-11.5293,11.865234375,15.5259,184.218442383
204,27.374,761,1488,1485,1500,1517,0.0491036,-0.0657547,0.0173127,0.749544,-1.18093,-9.75846,12.158203125,15.5259,188.767045898
205,27.476,781,1488,1485,1500,1519,0.0376394,-0.0545164,0.0128574,-0.818397,0.479308,-12.1078,13.134765625,15.5259,203.929057617
206,27.574,759,1488,1485,1500,1519,0.0309704,-0.0525278,0.00817592,0.603193,-0.0950501,-7.95073,12.060546875,15.5224,187.208632812
207,27.676,782,1488,1485,1500,1517,0.0309196,-0.0459826,-0.00870139,1.18396,0.581676,-9.57682,13.18359375,15.5224,204.641015625
208,27.775,747,1488,1485,1499,1520,0.0263633,-0.0386277,-0.00964773,1.97324,-0.201551,-7.33497,11.474609375,15.5224,178.113476562
209,27.877,751,1488,1485,1499,1519,0.0172721,-0.0313834,-0.026331,-0.208306,0.348588,-11.2334,11.669921875,15.5084,180.981816406
210,27.976,791,1488,1485,1500,1517,0.0141193,-0.0243007,-0.0218065,0.787133,0.595184,-8.56958,13.623046875,15.5084,211.271660156
211,28.078,755,1488,1485,1499,1520,0.0064878,-0.0217757,-0.022341,0.923305,-0.327955,-8.5501,11.865234375,15.5084,184.010800781
212,28.176,761,1488,1486,1500,1517,-0.00182496,-0.0176813,-0.0243511,-0.520929,0.411403,-10.0721,12.158203125,15.5096,188.568867188
213,28.279,779,1488,1485,1499,1519,-0.00468316,-0.0168349,-0.0180974,2.20029,0.271825,-7.13916,13.037109375,15.5096,202.200351563
214,28.377,780,1488,1486,1500,1519,-0.0149372,-0.0140575,-0.0184466,2.04174,0.565458,-8.51828,13.0859375,15.5096,202.95765625
215,28.479,762,1488,1485,1499,1519,-0.0278742,-0.00938846,-0.0111331,-0.126096,1.40127,-11.8786,12.20703125,15.5082,189.309082031
216,28.578,792,1488,1486,1499,1517,-0.039071,-0.0128255,-0.00192598,0.557095,-1.347,-9.4139,13.671875,15.5082,212.026171875
217,28.68,771,1488,1485,1499,1519,-0.0528572,-0.00335597,0.00729495,-0.123487,0.490767,-10.7813,12.646484375,15.5082,196.124208984
218,28.778,783,1488,1485,1499,1520,-0.0619935,0.000372526,0.0205861,1.60279,-0.214098,-8.48576,13.232421875,15.4995,205.095922852
219,28.881,779,1488,1485,1499,1519,-0.078085,0.00807762,0.0023141,-0.503091,1.33554,-10.6844,13.037109375,15.4995,202.068676758
220,28.979,781,1488,1485,1499,1519,-0.0845998,0.00279337,0.0040417,0.190108,-0.080357,-9.12711,13.134765625,15.4995,203.582299805
221,29.082,743,1488,1486,1499,1519,-0.0981635,0.0117332,-0.000485009,-1.62955,1.88652,-14.333,11.279296875,15.5003,174.832485352
222,29.18,773,1488,1486,1500,1519,-0.107991,-4.17394e-05,0.00654438,-0.150735,-1.78307,-7.88902,12.744140625,15.5003,197.53800293
223,29.282,763,1488,1486,1499,1519,-0.120551,0.00674433,-0.0180511,-1.17151,1.07743,-12.9881,12.255859375,15.5003,189.96949707
224,29.381,758,1488,1485,1499,1519,-0.131563,-0.00176289,-0.0100238,-0.0339597,-1.11285,-7.05397,12.01171875,15.4936,186.104765625
225,29.483,822,1488,1486,1499,1517,-0.139254,-0.00296609,-0.021871,1.71767,1.0259,-8.97003,15.13671875,15.4936,234.522265625
226,29.585,801,1488,1486,1500,1519,-0.156548,-0.00722674,-0.0461317,0.0498171,-0.930665,-7.60863,14.111328125,15.4936,218.635273438
227,29.684,758,1488,1485,1499,1520,-0.160455,-0.007813,-0.0541943,0.962632,1.31761,-9.3881,12.01171875,15.4878,186.035097656
228,29.786,775,1488,1485,1499,1520,-0.164964,-0.0122439,-0.0638442,0.266023,-0.122064,-8.20719,12.841796875,15.4878,198.891181641
229,29.884,815,1487,1485,1499,1519,-0.165549,-0.00971029,-0.0827747,0.352212,-0.533717,-10.3453,14.794921875,15.4878,229.140791016
230,29.986,783,1488,1485,1499,1519,-0.165882,-0.00856668,-0.0934606,0.59291,-0.081254,-9.06884,13.232421875,15.4817,204.860385742
231,30.085,815,1488,1485,1499,1519,-0.164778,-0.00675535,-0.111341,-0.126333,1.6629,-11.5916,14.794921875,15.4817,229.050541992
232,30.187,779,1488,1486,1499,1517,-0.15794,-0.0143954,-0.120765,0.108501,0.318855,-8.94528,13.037109375,15.4817,201.836616211
233,30.286,741,1488,1486,1499,1517,-0.158022,-0.0126193,-0.134841,-0.0372202,1.84275,-9.91934,11.181640625,15.4734,173.017998047
234,30.388,744,1488,1485,1499,1517,-0.152518,-0.0127997,-0.136027,1.46643,-0.150367,-9.62229,11.328125,15.4734,175.284609375
235,30.486,739,1487,1485,1499,1519,-0.149119,-0.00699369,-0.125565,1.15779,1.97166,-10.0503,11.083984375,15.4734,171.506923828
236,30.589,739,1487,1485,1499,1519,-0.148243,-0.0110155,-0.130847,-1.04822,-0.210965,-12.5151,11.083984375,15.4754,171.529091797
237,30.687,779,1488,1485,1499,1519,-0.142851,-0.0100258,-0.121288,0.644075,-1.72152,-9.38673,13.037109375,15.4754,201.754482422
238,30.79,795,1488,1486,1498,1519,-0.141525,-0.00434813,-0.122245,-1.23345,1.0062,-13.2929,13.818359375,15.4754,213.844638672
239,30.889,801,1488,1486,1483,1519,-0.12773,-0.00546449,-0.110176,-0.693144,-0.344972,-9.55063,14.111328125,15.4703,218.306479492
240,30.99,757,1488,1486,1480,1519,-0.110278,-0.000104039,-0.124175,0.622676,0.240828,-12.0163,11.962890625,15.4703,185.069506836
241,31.089,763,1488,1486,1480,1519,-0.097698,-0.00107286,-0.130065,0.782492,-0.894036,-8.18333,12.255859375,15.4703,189.601821289
242,31.191,767,1488,1486,1480,1519,-0.0842664,-0.00193526,-0.123374,0.107117,-0.0037812,-9.76196,12.451171875,15.4698,192.617138672
243,31.289,752,1488,1486,1480,1519,-0.0773997,0.000638186,-0.119379,0.318609,-0.776958,-8.59426,11.71875,15.4698,181.28671875
244,31.391,790,1488,1486,1481,1520,-0.069228,0.0038962,-0.10887,1.7458,-0.247506,-6.29157,13.57421875,15.4698,209.990449219
245,31.49,735,1488,1485,1480,1520,-0.0685287,0.00698201,-0.123952,1.08836,1.37076,-10.3464,10.888671875,15.4754,168.506552734
246,31.592,773,1488,1485,1480,1520,-0.0692085,0.0051668,-0.107151,2.65035,-0.416609,-6.7063,12.744140625,15.4754,197.220673828
247,31.691,550,1488,1485,1476,1520,-0.0721174,0.00847872,-0.106074,0.956088,0.451041,-9.8159,1.85546875,15.4754,28.7141210938
248,31.793,800,1488,1485,1476,1520,-0.0807012,0.00694196,0.0310862,0.871089,-0.336323,-9.72679,14.0625,15.4886,217.8084375
249,31.891,781,1488,1485,1473,1520,-0.0823686,0.00600692,0.0647253,0.854794,-0.505017,-8.9911,13.134765625,15.4886,203.439130859
250,31.993,779,1488,1485,1473,1520,-0.0720378,0.0126008,0.0538975,-0.359195,-0.633685,-11.4392,13.037109375,15.4886,201.926572266
251,32.092,804,1488,1486,1475,1520,-0.0633519,0.0303594,0.0523155,-0.384078,1.58651,-11.5242,14.2578125,15.4814,220.730898438
252,32.194,725,1487,1485,1474,1520,-0.0564234,0.0310878,0.0595016,0.485909,0.758836,-8.62559,10.400390625,15.4814,161.012607422
253,32.293,779,1488,1485,1474,1520,-0.0544758,0.032458,0.0522576,-0.467549,-0.521499,-11.2773,13.037109375,15.4814,201.832705078
254,32.395,787,1488,1485,1474,1520,-0.0401176,0.0366024,0.0523081,1.16271,-2.24306,-9.70703,13.427734375,15.4791,207.849243164
255,32.493,767,1488,1485,1474,1520,-0.0367625,0.0474949,0.0538039,-0.57727,0.885706,-11.9734,12.451171875,15.4791,192.73293457
256,32.596,733,1488,1485,1474,1520,-0.0279002,0.0505438,0.0561378,-0.338957,0.482748,-10.1318,10.791015625,15.4791,167.035209961
257,32.694,784,1488,1485,1475,1520,-0.0279002,0.0505438,0.0561378,-0.338957,0.482748,-10.1318,13.28125,15.4758,205.53796875
258,32.796,796,1488,1485,1474,1520,-0.0156475,0.062376,0.0579277,0.513632,1.13368,-8.38036,13.8671875,15.4758,214.605820312
259,32.895,760,1488,1487,1475,1520,-0.0156475,0.062376,0.0579277,0.513632,1.13368,-8.38036,12.109375,15.4758,187.402265625
260,32.997,760,1488,1493,1474,1518,-0.00616726,0.0606905,0.0530328,0.341395,-0.389129,-10.1096,12.109375,15.4728,187.3659375
261,33.095,760,1489,1524,1475,1519,0.00387619,0.0573902,0.0585429,-0.596765,0.0316086,-9.64258,12.109375,15.4728,187.3659375
262,33.198,767,1489,1549,1474,1518,0.0142818,0.0536082,0.0500306,-0.203946,-1.66737,-9.41538,12.451171875,15.4728,192.654492187
263,33.297,775,1490,1549,1475,1519,0.0345035,0.0538113,0.0564246,0.992158,0.74229,-9.86954,12.841796875,15.4763,198.743500977
264,33.398,795,1489,1546,1475,1520,0.0545813,0.0481883,0.0450181,-0.0473392,0.449055,-9.36469,13.818359375,15.4763,213.857075195
265,33.497,756,1490,1541,1475,1520,0.0777006,0.0368845,0.0500507,0.525758,-0.158124,-9.18229,11.9140625,15.4763,184.385605469
266,33.599,770,1490,1542,1475,1520,0.0786583,0.0340927,0.0520281,-0.139989,0.758585,-11.1577,12.59765625,15.4841,195.063369141
267,33.698,739,1489,1547,1473,1518,0.0743811,0.0222735,0.0716968,1.27241,0.248718,-5.37739,11.083984375,15.4841,171.625522461
268,33.8,768,1489,1545,1474,1518,0.0737083,0.0138947,0.0691267,0.598914,-1.17631,-7.56142,12.5,15.4841,193.55125
269,33.898,745,1490,1523,1475,1519,0.0854283,0.00642824,0.0522188,1.33877,0.420975,-8.20261,11.376953125,15.4765,176.075415039
270,34.001,775,1489,1489,1475,1520,0.0776265,-0.00338317,0.0592921,-0.0816613,-0.360432,-8.99226,12.841796875,15.4765,198.746069336
271,34.099,755,1489,1487,1475,1520,0.0630054,-0.0038016,0.0511634,-0.0146651,0.912911,-12.1402,11.865234375,15.4765,183.632299805
272,34.201,778,1489,1486,1475,1519,0.0486383,9.97734e-05,0.0588412,-0.110682,0.929471,-9.40968,12.98828125,15.4715,200.948193359
273,34.3,767,1488,1491,1473,1518,0.0390669,0.00511329,0.0506,-0.423565,-0.314524,-9.74385,12.451171875,15.4715,192.638305664
274,34.402,752,1488,1524,1474,1518,0.043811,0.0188929,0.0478389,0.707899,-0.533834,-9.85896,11.71875,15.4715,181.306640625
275,34.501,775,1489,1552,1475,1519,0.0513803,0.0381369,0.0509535,0.999113,-0.663519,-10.2887,12.841796875,15.4656,198.60609375
276,34.603,763,1488,1554,1475,1520,0.0666456,0.0454861,0.0595851,1.08411,-1.08757,-10.3274,12.255859375,15.4656,189.54421875
277,34.701,735,1489,1527,1475,1520,0.0911472,0.0413359,0.046749,0.343735,0.38899,-7.81089,10.888671875,15.4656,168.39984375
278,34.804,781,1489,1500,1475,1519,0.111766,0.03792,0.0295936,0.521497,1.55876,-9.89559,13.134765625,15.4606,203.071357422
279,34.902,784,1489,1487,1475,1519,0.105697,0.0242309,0.0759834,0.493728,0.0591873,-6.90226,13.28125,15.4606,205.33609375
280,35.004,744,1488,1492,1475,1518,0.0831267,0.0254019,0.0406747,-0.847967,1.79935,-13.6753,11.328125,15.4606,175.139609375
281,35.103,749,1489,1536,1475,1520,0.0610709,0.0210564,0.0503264,-0.616626,0.816795,-12.0505,11.572265625,15.4547,178.845893555
282,35.205,773,1488,1586,1475,1518,0.0521525,0.0252381,0.055486,-0.210718,0.358628,-10.7034,12.744140625,15.4547,196.956870117
283,35.303,783,1488,1594,1474,1520,0.0713784,0.0257024,0.0744725,1.1707,1.43955,-9.86601,13.232421875,15.4547,204.503110352
284,35.406,799,1489,1594,1475,1519,0.156917,0.02121,0.0278827,-0.224497,0.589493,-11.3707,14.013671875,15.4503,216.51543457
285,35.504,753,1489,1594,1475,1520,0.325005,0.0144663,-0.0348098,1.03882,-0.954951,-7.702,11.767578125,15.4503,181.812612305
286,35.606,803,1489,1589,1475,1518,0.512747,0.00532574,-0.0561,0.559201,0.69508,-10.3747,14.208984375,15.4503,219.533071289
287,35.704,764,1489,1551,1475,1518,0.670858,-0.00644557,-0.0354408,0.844251,-1.4872,-8.59741,12.3046875,15.4491,190.096347656
288,35.807,811,1489,1528,1474,1520,0.741188,-0.0135192,0.000700393,-0.695786,-0.256641,-10.3119,14.599609375,15.4491,225.550825195
289,35.905,795,1489,1501,1475,1520,0.670109,-0.014685,0.15126,0.200006,1.77559,-10.973,13.818359375,15.4491,213.48121582
290,36.008,743,1489,1500,1475,1520,0.526052,-0.0135449,0.13905,0.104416,-1.78021,-10.3324,11.279296875,15.4422,174.177158203
291,36.106,792,1489,1534,1475,1520,0.362211,0.00278299,0.112361,0.314062,0.0527749,-8.04739,13.671875,15.4422,211.123828125
292,36.209,755,1489,1534,1475,1520,0.220734,0.0140789,0.0647021,-1.77936,0.742132,-12.4854,11.865234375,15.4422,183.225322266
293,36.307,797,1489,1559,1474,1518,0.110542,0.0190323,0.0553153,-1.65162,0.357926,-11.5879,13.916015625,15.4406,214.871630859
294,36.409,768,1489,1559,1475,1520,0.0638077,0.0173565,0.0851179,0.909735,-0.702598,-7.27621,12.5,15.4406,193.0075
295,36.507,719,1489,1523,1475,1519,0.0767986,0.0156819,0.0208343,-0.188326,-0.248707,-10.494,10.107421875,15.4406,156.064658203
296,36.61,784,1489,1498,1474,1520,0.100611,0.0114822,0.0210585,-0.44116,0.0572711,-8.85926,13.28125,15.4423,205.093046875
297,36.708,800,1489,1488,1475,1520,0.108854,0.00458532,0.0732783,0.0819103,-1.52189,-8.96051,14.0625,15.4423,217.15734375
298,36.81,767,1488,1488,1474,1518,0.0896078,0.00427395,0.0486033,0.267884,-0.842151,-8.36758,12.451171875,15.4423,192.274731445
299,36.909,794,1488,1485,1475,1520,0.0724837,0.00763715,0.0578212,0.648702,-0.839554,-7.75731,13.76953125,15.4504,212.744765625
300,37.011,759,1488,1485,1475,1520,0.063972,0.0130011,0.0462828,-0.710205,0.302393,-10.8234,12.060546875,15.4504,186.340273438
301,37.109,756,1488,1485,1474,1520,0.0608315,0.0141151,0.0525928,0.195356,-0.711265,-9.05015,11.9140625,15.4504,184.07703125
302,37.212,791,1488,1485,1474,1518,0.0598753,0.0128002,0.0512311,0.0754695,0.334556,-10.5188,13.623046875,15.4452,210.410683594
303,37.31,735,1490,1486,1475,1519,0.0666219,0.00832794,0.0468016,0.858222,-0.675302,-9.76245,10.888671875,15.4452,168.177714844
304,37.412,739,1538,1486,1475,1520,0.0643643,0.00530042,0.0395607,-0.608428,0.572333,-11.9239,11.083984375,15.4452,171.194355469
305,37.511,800,1604,1486,1475,1520,0.0625204,-0.00358324,0.0463561,0.0361151,0.765901,-9.33183,14.0625,15.4303,216.98859375
306,37.613,790,1627,1486,1474,1518,0.0568585,-0.0586523,0.046207,0.637326,-0.842665,-9.08606,13.57421875,15.4303,209.454267578
307,37.712,767,1627,1486,1474,1518,0.0472451,-0.189302,0.00594976,0.883426,-0.952929,-9.52122,12.451171875,15.4303,192.125317383
308,37.814,766,1628,1486,1474,1520,0.0315505,-0.389801,-0.0886193,-1.38987,0.684208,-11.7537,12.40234375,15.4201,191.245380859
309,37.913,758,1628,1486,1474,1520,0.0284367,-0.64292,-0.191954,0.0445931,0.366651,-10.7405,12.01171875,15.4201,185.221904297
310,38.014,767,1628,1486,1474,1520,0.0212212,-0.921654,-0.231128,0.0895454,-0.279657,-9.95262,12.451171875,15.4201,191.99831543
311,38.113,774,1622,1484,1475,1519,0.0167864,-1.14313,-0.229313,-0.929867,0.99383,-11.687,12.79296875,15.4218,197.290605469
312,38.216,763,1613,1486,1475,1519,0.0212961,-1.30678,-0.147737,0.52162,-0.61262,-6.9294,12.255859375,15.4218,189.007412109
313,38.314,768,1607,1486,1475,1520,0.0179204,-1.38858,-0.0626102,-0.981646,0.0138004,-10.551,12.5,15.4218,192.7725
314,38.416,767,1603,1486,1475,1518,0.0241345,-1.39683,0.000690395,1.41627,1.27459,-7.916,12.451171875,15.4233,192.03815918
315,38.514,796,1601,1486,1475,1520,0.0234306,-1.37731,0.0220039,2.03168,1.22876,-8.4649,13.8671875,15.4233,213.877792969
316,38.617,807,1598,1486,1475,1519,0.01792,-1.34589,0.0320708,-2.28316,0.637099,-12.9088,14.404296875,15.4233,222.161791992
317,38.715,742,1598,1486,1475,1519,0.0324813,-1.30482,0.0447122,0.882875,-1.68599,-8.12451,11.23046875,15.438,173.375976562
318,38.817,752,1597,1486,1474,1518,0.0318677,-1.25889,0.0239356,-1.20398,0.578735,-13.9313,11.71875,15.438,180.9140625
319,38.916,744,1598,1484,1475,1519,0.0405936,-1.23555,0.0210956,1.9843,0.0909579,-5.81384,11.328125,15.438,174.88359375
320,39.018,764,1597,1486,1474,1518,0.0400562,-1.21338,0.00535227,-0.28396,0.459202,-11.018,12.3046875,15.4386,189.967148437
321,39.116,795,1600,1486,1474,1520,0.0337573,-1.19906,0.00139782,0.275234,-0.433122,-9.04993,13.818359375,15.4386,213.336123047
322,39.219,720,1601,1486,1475,1520,0.0271798,-1.20165,-0.018082,-0.733978,0.20575,-12.8818,10.15625,15.4386,156.79828125
323,39.317,768,1602,1486,1474,1518,0.0241666,-1.21207,-0.0273283,-0.344959,0.433739,-8.80793,12.5,15.4368,192.96
324,39.419,759,1605,1486,1475,1519,0.0148193,-1.22776,-0.0451431,-2.54268,0.66903,-12.4294,12.060546875,15.4368,186.17625
325,39.518,767,1606,1484,1475,1519,0.02297,-1.2577,-0.0343187,1.61664,-1.115,-7.55249,12.451171875,15.4368,192.20625
326,39.62,737,1605,1486,1475,1519,0.0191992,-1.2779,-0.0402861,-0.769653,0.201181,-8.95888,10.986328125,15.4339,169.561889648
327,39.722,765,1605,1486,1475,1519,0.020814,-1.29886,-0.0327304,0.651765,0.917051,-9.77511,12.353515625,15.4339,190.662924805
328,39.821,763,1606,1486,1475,1519,0.0152951,-1.31705,-0.0306682,-0.750134,0.726693,-12.0352,12.255859375,15.4339,189.155708008
329,39.924,751,1605,1484,1475,1519,0.012507,-1.33046,-0.0289357,-0.574419,1.52736,-9.54535,11.669921875,15.4371,180.149750977
330,40.022,759,1605,1486,1475,1520,0.0140658,-1.35117,-0.021716,-0.250371,-1.93133,-8.63296,12.060546875,15.4371,186.179868164
331,40.124,777,1605,1486,1475,1520,0.0174854,-1.35227,-0.0273206,-0.503263,0.863758,-12.0744,12.939453125,15.4371,199.747631836
332,40.222,799,1605,1486,1475,1518,0.00884566,-1.35795,-0.0277917,-1.8331,0.883046,-11.5488,14.013671875,15.4493,216.501420898
333,40.325,790,1605,1486,1475,1520,0.00990166,-1.36176,-0.00999544,-0.644393,-0.15778,-10.6722,13.57421875,15.4493,209.712177734
334,40.423,779,1605,1484,1475,1519,0.00721341,-1.36544,-0.00809578,1.88967,-0.0897331,-6.88554,13.037109375,15.4493,201.414213867
335,40.525,738,1605,1486,1474,1518,-0.00309169,-1.365,-0.0253269,-1.9793,0.0647214,-9.84473,11.03515625,15.4443,170.430263672
336,40.623,768,1605,1486,1475,1520,-0.00309169,-1.365,-0.0253269,-1.9793,0.0647214,-9.84473,12.5,15.4443,193.05375
337,40.726,780,1605,1484,1475,1519,0.000752884,-1.36637,-0.0120386,0.643682,0.276604,-10.1127,13.0859375,15.4443,202.103144531
338,40.824,735,1604,1486,1474,1520,-0.000985672,-1.37169,-0.0142055,0.0725232,0.221572,-10.9837,10.888671875,15.437,168.088427734
339,40.927,773,1604,1486,1474,1520,0.000947665,-1.36551,-0.0153406,1.14773,2.6675,-8.9018,12.744140625,15.437,196.731298828
340,41.025,731,1605,1486,1473,1518,-0.0100231,-1.36463,-0.021462,-1.8519,1.7606,-9.91215,10.693359375,15.437,165.073388672
341,41.127,792,1605,1486,1475,1520,-0.00155903,-1.36915,-0.00309908,1.5554,1.91814,-8.91948,13.671875,15.433,210.998046875
342,41.226,747,1605,1486,1475,1520,0.000981042,-1.37271,-0.0289843,1.09889,0.689139,-11.4566,11.474609375,15.433,177.087646484
343,41.328,759,1605,1486,1474,1520,0.0050956,-1.38026,-0.0213633,-0.365086,0.153278,-10.8718,12.060546875,15.433,186.130419922
344,41.426,766,1605,1486,1475,1519,0.0131866,-1.38374,-0.0182202,-0.153855,0.855385,-10.0373,12.40234375,15.4256,191.31359375
345,41.529,752,1605,1486,1474,1520,0.0131866,-1.38374,-0.0182202,-0.153855,0.855385,-10.0373,11.71875,15.4256,180.76875
346,41.627,779,1605,1486,1475,1518,0.0222205,-1.38553,-0.00405295,3.14061,-0.0232143,-5.73778,13.037109375,15.4256,201.105234375
347,41.73,731,1605,1486,1475,1518,0.0123723,-1.38962,-0.0124236,0.923829,-0.506098,-7.84308,10.693359375,15.4194,164.885185547
348,41.828,747,1605,1486,1475,1519,0.00372341,-1.38757,-0.023512,0.181684,2.00156,-10.9415,11.474609375,15.4194,176.931591797
349,41.93,755,1605,1486,1474,1520,-0.0033049,-1.39162,-0.0144545,1.96251,0.0766005,-6.95305,11.865234375,15.4194,182.954794922
350,42.029,766,1605,1486,1475,1519,-0.0163123,-1.39093,-0.0175458,-0.0554465,0.627189,-10.8665,12.40234375,15.4246,191.301191406
351,42.131,774,1605,1486,1475,1519,-0.0200815,-1.39236,-0.00697425,1.79638,-0.371713,-5.50763,12.79296875,15.4246,197.326425781
352,42.229,763,1605,1486,1475,1520,-0.0245657,-1.39452,-0.0243466,-0.0501036,0.34434,-10.7087,12.255859375,15.4246,189.041728516
353,42.331,771,1605,1486,1475,1520,-0.0199367,-1.39502,-0.0155999,0.606497,0.804904,-9.61323,12.646484375,15.4242,195.061904297
354,42.43,739,1605,1486,1475,1520,-0.0238226,-1.39713,-0.0151284,-0.00115145,0.410582,-8.81003,11.083984375,15.4242,170.961591797
355,42.532,800,1605,1486,1475,1518,-0.0222231,-1.39897,-0.0233468,0.400067,-0.000802683,-11.6719,14.0625,15.4242,216.9028125
356,42.631,727,1605,1486,1475,1518,-0.0265438,-1.40393,-0.01526,0.0972487,-0.816148,-11.3412,10.498046875,15.42,161.879882812
357,42.733,791,1605,1486,1475,1520,-0.0301148,-1.39868,-0.022796,-0.766585,2.03146,-12.0217,13.623046875,15.42,210.067382812
358,42.832,752,1605,1486,1475,1520,-0.0268019,-1.40493,-0.0159339,-0.0240892,1.12553,-9.62938,11.71875,15.42,180.703125
359,42.934,791,1605,1484,1475,1519,-0.0219619,-1.40376,-0.0275595,-1.48789,0.382151,-14.3833,13.623046875,15.4208,210.07828125
360,43.032,771,1605,1486,1475,1520,-0.0173453,-1.40857,-0.00618575,0.0471811,-0.765087,-5.78137,12.646484375,15.4208,195.01890625
361,43.134,741,1605,1484,1475,1519,-0.0140776,-1.40247,-0.0221685,-0.61313,-0.772494,-11.1235,11.181640625,15.4208,172.42984375
362,43.233,775,1605,1486,1474,1518,-0.00983747,-1.40207,-0.0127081,-0.440422,0.437306,-9.37663,12.841796875,15.4183,197.998676758
363,43.335,799,1605,1484,1475,1520,-0.00389419,-1.3964,-0.0170182,1.21179,1.04496,-8.98569,14.013671875,15.4183,216.06699707
364,43.433,763,1605,1486,1475,1519,-0.011283,-1.39741,-0.0225328,-1.79884,1.42388,-11.1487,12.255859375,15.4183,188.964516602
365,43.536,761,1605,1486,1475,1520,0.000903377,-1.40612,-0.0116486,1.81841,-0.845312,-9.12353,12.158203125,15.4173,187.446665039
366,43.634,743,1605,1486,1475,1520,0.000282053,-1.40548,-0.00385972,1.37948,0.266762,-6.88594,11.279296875,15.4173,173.896303711
367,43.737,743,1605,1484,1475,1519,0.000606133,-1.40427,-0.0175265,-0.426664,1.45829,-11.0345,11.279296875,15.4173,173.896303711
368,43.835,737,1605,1486,1474,1520,0.00591905,-1.40815,-0.019609,-0.340178,0.0213715,-10.8084,10.986328125,15.4147,169.350952148
369,43.937,799,1605,1486,1474,1520,0.00988355,-1.40899,-0.0170463,0.305357,0.620433,-10.9324,14.013671875,15.4147,216.016547852
370,44.036,773,1605,1486,1474,1520,0.0117994,-1.41712,-0.010785,-0.212422,-0.0373231,-9.18543,12.744140625,15.4147,196.447104492
371,44.138,772,1605,1486,1475,1520,0.00935747,-1.41616,-0.0116183,-1.17225,0.739681,-12.2177,12.6953125,15.4121,195.661425781
372,44.236,761,1605,1486,1475,1520,0.0107018,-1.422,-0.0120134,0.440847,-1.29151,-7.23866,12.158203125,15.4121,187.383442383
373,44.339,776,1605,1486,1474,1520,0.00357599,-1.42351,-0.00911359,-0.314309,-0.431695,-11.3552,12.890625,15.4121,198.671601563
374,44.437,782,1605,1486,1474,1520,0.00249878,-1.42152,-0.00516508,0.0409845,0.228369,-9.73411,13.18359375,15.4103,203.163134766
375,44.539,793,1605,1486,1475,1519,-0.00190121,-1.42694,-0.0103412,1.10276,0.347634,-6.85707,13.720703125,15.4103,211.440151367
376,44.637,739,1604,1486,1474,1518,-0.00702225,-1.41985,-0.0230407,-1.53382,0.87267,-11.7095,11.083984375,15.4103,170.807524414
377,44.74,767,1605,1486,1475,1520,-0.00046756,-1.42403,-0.00116435,3.31703,-0.0350191,-8.61452,12.451171875,15.4076,191.842675781
378,44.838,769,1605,1486,1475,1519,-0.00546548,-1.42264,-0.00047109,1.57196,-0.42315,-5.55268,12.548828125,15.4076,193.347324219
379,44.941,796,1604,1486,1475,1520,-0.00756302,-1.41186,-0.0102224,0.623143,2.1144,-9.66942,13.8671875,15.4076,213.660078125
380,45.039,784,1605,1484,1475,1519,-0.0167654,-1.41281,-0.00927344,-0.707676,-0.0244642,-13.0036,13.28125,15.4039,204.583046875
381,45.141,780,1604,1486,1475,1520,-0.020077,-1.40048,-0.00116517,1.30764,0.290237,-7.15789,13.0859375,15.4039,201.574472656
382,45.24,763,1604,1486,1475,1520,-0.030044,-1.39656,-0.00723487,-0.265799,0.917575,-11.2077,12.255859375,15.4039,188.788032227
383,45.343,759,1600,1486,1475,1519,-0.0296041,-1.38975,0.00227303,1.74557,-1.17862,-7.53191,12.060546875,15.3973,185.699858398
384,45.44,757,1600,1486,1475,1519,-0.0338882,-1.3477,0.0142489,-0.181533,1.28268,-9.41448,11.962890625,15.3973,184.19621582
385,45.542,787,1599,1486,1475,1520,-0.0338882,-1.3477,0.0142489,-0.181533,1.28268,-9.41448,13.427734375,15.3973,206.750854492
386,45.641,755,1600,1486,1474,1520,-0.0277207,-1.3292,0.00364978,0.157837,2.29237,-11.2547,11.865234375,15.3884,182.586972656
387,45.743,775,1600,1486,1474,1520,-0.0266407,-1.31848,0.0069519,0.599408,0.77277,-8.68296,12.841796875,15.3884,197.614707031
388,45.842,744,1601,1486,1475,1519,-0.0213983,-1.31214,0.0120025,1.51513,0.819797,-6.31895,11.328125,15.3884,174.32171875
389,45.944,789,1603,1486,1475,1518,-0.0153132,-1.3111,-0.0191964,-0.557737,1.0132,-12.7112,13.525390625,15.3904,208.161171875
390,46.043,742,1605,1486,1475,1520,-0.0145417,-1.31599,-0.0311301,0.3319,1.34708,-9.36759,11.23046875,15.3904,172.84140625
391,46.145,783,1605,1486,1475,1519,-0.0138346,-1.33247,-0.043116,-0.47221,-0.251303,-12.9018,13.232421875,15.3904,203.652265625
392,46.243,780,1605,1486,1475,1519,-0.00829616,-1.35442,-0.0332839,0.8653,-0.169153,-8.62209,13.0859375,15.388,201.36640625
393,46.346,803,1605,1486,1475,1519,-0.00824025,-1.37505,-0.0298081,0.340967,-1.67198,-10.289,14.208984375,15.388,218.647851562
394,46.444,761,1605,1486,1475,1518,-0.00145155,-1.38649,-0.0280781,0.0064369,0.695401,-10.106,12.158203125,15.388,187.090429688
395,46.546,769,1574,1488,1475,1519,-0.0012766,-1.36993,-0.00676066,-1.16059,1.41047,-10.8494,12.548828125,15.3936,193.171640625
396,46.644,787,1489,1489,1475,1520,0.00178875,-1.25313,0.209969,0.14649,-0.748706,-8.98476,13.427734375,15.3936,206.701171875
397,46.747,788,1489,1487,1475,1519,-0.00235957,-1.04456,0.2705,0.368768,-2.12073,-9.57116,13.4765625,15.3936,207.4528125
398,46.846,819,1488,1485,1475,1520,0.00484017,-0.815274,0.221111,0.541063,-2.25453,-7.08192,14.990234375,15.3875,230.662231445
399,46.948,795,1488,1485,1475,1518,0.00237618,-0.622501,0.14232,-1.88243,0.987664,-11.575,13.818359375,15.3875,212.630004883
400,47.046,788,1488,1485,1475,1519,0.013498,-0.472215,0.107978,0.639572,-1.40971,-8.50661,13.4765625,15.3875,207.370605469
401,47.149,767,1488,1485,1475,1520,0.00579019,-0.336302,0.0825316,0.94606,-0.0897546,-8.31966,12.451171875,15.3876,191.593652344
402,47.247,778,1488,1485,1475,1520,-0.00842393,-0.229453,0.0647042,0.130189,0.223244,-9.75048,12.98828125,15.3876,199.858476563
403,47.349,777,1488,1485,1475,1520,-0.0305225,-0.13638,0.0541206,-0.639294,0.410251,-11.3219,12.939453125,15.3876,199.107128906
404,47.447,767,1486,1488,1475,1520,-0.0369856,-0.0529416,0.0573216,1.57197,0.981236,-6.99128,12.451171875,15.3948,191.683300781
405,47.55,798,1483,1489,1475,1519,-0.0546749,0.0131472,0.0467355,-0.0242573,1.20814,-10.6302,13.96484375,15.3948,214.985976563
406,47.648,791,1480,1488,1474,1520,-0.0598721,0.0621937,0.0447162,2.41172,-0.0183873,-8.63231,13.623046875,15.3948,209.724082031
407,47.75,859,1416,1491,1474,1520,-0.0714079,0.0903463,0.0621938,0.253592,-0.732085,-9.51359,16.943359375,15.3973,260.881987305
408,47.849,811,1408,1492,1475,1519,-0.0675148,0.143913,0.0437533,0.0284662,-0.96927,-8.53813,14.599609375,15.3973,224.79456543
409,47.951,772,1405,1490,1474,1520,-0.0468934,0.233823,0.0321933,1.20024,0.906041,-7.07033,12.6953125,15.3973,195.473535156
410,48.049,781,1406,1489,1475,1520,-0.0240192,0.341627,0.010241,1.12988,-2.02295,-10.0788,13.134765625,15.3986,202.257001953
411,48.152,759,1393,1488,1474,1520,-0.00312398,0.455323,-0.00527932,0.627329,-0.267332,-8.44752,12.060546875,15.3986,185.715537109
412,48.25,800,1389,1489,1475,1520,0.0155728,0.58049,-0.0322799,-0.702452,1.11582,-11.5048,14.0625,15.3986,216.5428125
413,48.352,787,1387,1488,1475,1520,0.03305,0.710539,-0.0524888,-1.25625,-0.861696,-11.2171,13.427734375,15.3911,206.667602539
414,48.451,798,1393,1488,1475,1520,0.03305,0.710539,-0.0524888,-1.25625,-0.861696,-11.2171,13.96484375,15.3911,214.934306641
415,48.554,787,1411,1487,1475,1520,0.0537216,0.882097,0.0382367,0.0418649,0.526842,-7.43119,13.427734375,15.3911,206.667602539
416,48.652,745,1411,1488,1475,1520,0.0537216,0.882097,0.0382367,0.0418649,0.526842,-7.43119,11.376953125,15.3928,175.123164062
417,48.754,763,1411,1489,1475,1520,0.0570376,0.870558,0.0654802,-1.37187,1.20466,-13.0093,12.255859375,15.3928,188.651992187
418,48.852,719,1411,1488,1475,1520,0.0619388,0.822275,0.0756983,0.426539,-0.783602,-7.39611,10.107421875,15.3928,155.581523437
419,48.955,743,1411,1488,1475,1520,0.0635323,0.77814,0.0671718,-0.610889,0.396504,-10.4319,11.279296875,15.4051,173.758696289
420,49.053,746,1412,1489,1475,1518,0.0715464,0.738374,0.0672368,1.1808,-0.00615527,-7.89397,11.42578125,15.4051,176.015302734
421,49.155,735,1411,1488,1475,1520,0.067799,0.70997,0.0562809,-0.77036,0.610991,-12.525,10.888671875,15.4051,167.741079102
422,49.254,733,1410,1489,1475,1519,0.0725145,0.688388,0.0561655,0.860841,0.715464,-8.52521,10.791015625,15.401,166.192431641
423,49.356,790,1405,1488,1475,1518,0.075037,0.677869,0.0492224,1.75048,-0.719185,-7.22481,13.57421875,15.401,209.056542969
424,49.454,776,1406,1489,1475,1519,0.0701449,0.681989,0.0334987,-0.99947,-0.0826398,-9.42075,12.890625,15.401,198.528515625
425,49.557,751,1406,1489,1475,1520,0.0807485,0.69264,0.0255865,0.738817,-1.63779,-9.51991,11.669921875,15.3986,179.700458984
426,49.655,779,1405,1489,1475,1518,0.0749547,0.71269,0.0165073,-1.49512,0.646811,-14.0378,13.037109375,15.3986,200.753232422
427,49.757,767,1405,1489,1475,1520,0.0788985,0.72887,0.0325842,-0.139675,-1.51236,-9.38156,12.451171875,15.3986,191.730615234
428,49.856,725,1406,1489,1475,1519,0.0673306,0.756999,0.0255106,-1.6189,2.44039,-11.3366,10.400390625,15.3955,160.119213867
429,49.958,766,1405,1489,1474,1518,0.0709316,0.769021,0.040861,-0.35159,-0.0704966,-9.75804,12.40234375,15.3955,190.940283203
430,50.06,741,1405,1489,1475,1520,0.0702191,0.780509,0.0378093,1.99019,-0.342726,-9.18762,11.181640625,15.3955,172.146948242
431,50.159,767,1406,1489,1475,1519,0.0614848,0.792601,0.0334941,-1.53579,0.533027,-11.8994,12.451171875,15.3895,191.61730957
432,50.261,782,1406,1489,1475,1519,0.0546786,0.805964,0.0344669,-2.27223,-0.08781,-11.6994,13.18359375,15.3895,202.888916016
433,50.36,800,1405,1489,1475,1518,0.0542313,0.813152,0.0511113,0.587481,-1.00161,-5.70147,14.0625,15.3895,216.41484375
434,50.462,773,1406,1489,1475,1520,0.0504081,0.815817,0.0452105,1.42611,-2.20959,-9.63243,12.744140625,15.381,196.017626953
435,50.56,789,1406,1487,1475,1519,0.0477875,0.817857,0.0509834,-0.0378845,0.0532956,-8.36848,13.525390625,15.381,208.034033203
436,50.662,743,1405,1489,1475,1519,0.04786,0.821113,0.0394863,0.901487,0.374005,-9.29277,11.279296875,15.381,173.486865234
437,50.762,750,1406,1487,1475,1519,0.0449338,0.824764,0.0395384,-0.651597,0.600021,-12.5828,11.62109375,15.3857,178.798662109
438,50.863,783,1406,1487,1475,1519,0.0541102,0.827753,0.0464369,2.40712,-1.4723,-7.9614,13.232421875,15.3857,203.590073242
439,50.962,757,1404,1487,1475,1520,0.0508569,0.835683,0.046994,0.697699,0.916804,-9.28233,11.962890625,15.3857,184.057446289
440,51.065,783,1402,1487,1475,1519,0.0573071,0.845179,0.0391607,0.47055,0.825777,-10.3991,13.232421875,15.3847,203.57684082
441,51.162,797,1396,1489,1475,1520,0.060145,0.857395,0.0379272,0.886514,0.671864,-9.67258,13.916015625,15.3847,214.093725586
442,51.264,775,1388,1489,1474,1520,0.0643558,0.873109,0.02119,0.513577,-0.268227,-9.24103,12.841796875,15.3847,197.567192383
443,51.363,757,1381,1487,1475,1519,0.0656251,0.917499,-0.0120172,0.366491,-1.25884,-8.89672,11.962890625,15.382,184.013183594
444,51.465,751,1376,1489,1475,1519,0.0707669,0.985715,-0.0417201,0.397912,-0.219288,-10.9112,11.669921875,15.382,179.506738281
445,51.564,799,1369,1488,1475,1520,0.072899,1.07453,-0.0561244,1.14109,-0.434396,-7.91956,14.013671875,15.382,215.558300781
446,51.666,737,1369,1488,1475,1520,0.0654425,1.18479,-0.107271,-2.41034,1.07779,-11.4039,10.986328125,15.3763,168.929077148
447,51.765,808,1363,1488,1475,1519,0.0711688,1.28716,-0.101003,-0.0939381,-1.48708,-7.85084,14.453125,15.3763,222.235585938
448,51.867,748,1363,1488,1475,1519,0.0780688,1.39704,-0.108614,1.25196,-0.771472,-8.94767,11.5234375,15.3763,177.187832031
449,51.966,735,1362,1490,1475,1518,0.0770711,1.49757,-0.109159,-0.0936592,2.13361,-10.1331,10.888671875,15.3757,167.420952148
450,52.067,796,1355,1490,1475,1518,0.0851237,1.58282,-0.103307,0.363447,-1.54795,-8.3843,13.8671875,15.3757,213.217714844
451,52.166,772,1355,1490,1475,1518,0.0873038,1.65721,-0.0895046,0.94503,-2.20528,-9.31059,12.6953125,15.3757,195.199316406
452,52.268,799,1346,1490,1475,1518,0.0952063,1.74245,-0.130325,1.97528,0.729392,-5.99584,14.013671875,15.3688,215.373320312
453,52.367,794,1346,1490,1475,1518,0.0907065,1.82639,-0.178736,-2.80901,-1.02314,-12.0587,13.76953125,15.3688,211.621171875
454,52.469,799,1342,1489,1475,1520,0.0923211,1.9294,-0.174136,-1.20968,-0.0391503,-13.774,14.013671875,15.3688,215.373320312
455,52.567,768,1338,1489,1475,1520,0.0854265,2.02395,-0.181021,-0.640197,0.680427,-6.9525,12.5,15.3624,192.03
456,52.669,739,1338,1489,1475,1518,0.104769,2.11256,-0.186459,0.994274,-2.72083,-11.7903,11.083984375,15.3624,170.276601562
457,52.768,783,1338,1490,1474,1518,0.10397,2.18841,-0.143822,2.28674,-2.40926,-6.4591,13.232421875,15.3624,203.281757812
458,52.87,800,1338,1490,1475,1520,0.0967858,2.25355,-0.130586,-0.262518,-0.767967,-13.8499,14.0625,15.3616,216.0225
459,52.968,762,1338,1490,1475,1520,0.101149,2.29505,-0.0998888,1.4059,-0.443382,-7.90686,12.20703125,15.3616,187.51953125
460,53.071,822,1338,1490,1475,1520,0.0937012,2.32735,-0.0926457,-0.757243,-1.83776,-11.0962,15.13671875,15.3616,232.52421875
461,53.169,824,1338,1490,1475,1520,0.0912698,2.35649,-0.0768995,-0.576521,-0.708038,-13.4777,15.234375,15.3644,234.06703125
462,53.272,776,1338,1490,1475,1520,0.0801543,2.36924,-0.0599525,0.189189,-0.963881,-9.48891,12.890625,15.3644,198.05671875
463,53.37,783,1337,1490,1475,1519,0.0774284,2.38587,-0.0456372,2.13905,-0.469226,-8.26395,13.232421875,15.3644,203.308222656
464,53.472,801,1320,1490,1475,1519,0.0624985,2.41108,-0.141001,-0.276456,1.61855,-10.5551,14.111328125,15.3617,216.773989258
465,53.571,782,1308,1488,1475,1519,0.0612282,2.4505,-0.300824,1.37282,0.0332416,-10.8227,13.18359375,15.3617,202.522412109
466,53.673,784,1308,1486,1475,1520,0.061289,2.54769,-0.363556,1.42722,-0.0510101,-6.86696,13.28125,15.3617,204.022578125
467,53.771,745,1297,1486,1475,1520,0.0592617,2.66776,-0.403304,0.125244,-0.0275947,-14.1312,11.376953125,15.3525,174.664672852
468,53.874,785,1297,1486,1475,1520,0.0621798,2.7892,-0.44382,0.409625,0.0319225,-10.1579,13.330078125,15.3525,204.650024414
469,53.972,759,1297,1486,1475,1520,0.0635257,2.90726,-0.425876,0.0204465,-0.786534,-9.78506,12.060546875,15.3525,185.159545898
470,54.075,787,1298,1486,1475,1520,0.0682544,3.01537,-0.366681,-1.27097,-0.188057,-10.834,13.427734375,15.3498,206.113037109
471,54.173,781,1302,1488,1475,1519,0.0765521,3.10658,-0.276588,0.0265374,-0.297723,-10.6434,13.134765625,15.3498,201.616025391
472,54.275,772,1302,1488,1475,1519,0.095897,3.16128,-0.217314,1.47182,-3.93616,-11.0718,12.6953125,15.3498,194.870507812
473,54.374,800,1309,1486,1475,1520,0.0944345,3.18962,-0.167297,-3.44235,-2.10883,-18.5788,14.0625,15.3489,215.84390625
474,54.476,783,1310,1486,1475,1519,0.101887,3.19388,-0.0490581,0.254454,0.225693,-14.1842,13.232421875,15.3489,203.103120117
475,54.574,800,1335,1488,1475,1520,0.105452,3.14577,0.100773,0.205263,-5.80183,-7.54674,14.0625,15.3489,215.84390625
476,54.677,799,1378,1486,1475,1519,0.0971778,3.01349,0.387771,1.14698,-2.65106,-2.8086,14.013671875,15.3468,215.065019531
477,54.775,794,1400,1485,1475,1519,0.0863339,2.70916,0.745371,0.629553,-1.04043,-14.3667,13.76953125,15.3468,211.318242188
478,54.877,872,1430,1486,1475,1520,0.0718932,2.29674,0.902358,0.810066,1.0047,-8.89446,17.578125,15.3468,269.76796875
479,54.976,839,1449,1486,1475,1519,0.061356,1.83042,0.836777,-1.99934,-2.26795,-14.8602,15.966796875,15.3209,244.625698242
480,55.078,787,1466,1484,1475,1519,0.0565282,1.43211,0.66711,0.884647,-0.211034,-9.70968,13.427734375,15.3209,205.724975586
481,55.176,812,1485,1486,1474,1520,0.0502015,1.12058,0.447184,0.178559,-1.88043,-9.32665,14.6484375,15.3209,224.427246094
482,55.279,768,1487,1486,1475,1520,0.0449615,0.855074,0.274863,-1.18047,-0.0748324,-8.66917,12.5,15.3198,191.4975
483,55.377,768,1488,1485,1475,1520,0.0406449,0.657807,0.179794,0.272433,0.640926,-9.67001,12.5,15.3198,191.4975
484,55.479,767,1488,1488,1475,1519,0.0376463,0.494106,0.119027,-0.0603319,-1.50019,-9.159,12.451171875,15.3198,190.749462891
485,55.578,752,1488,1488,1475,1519,0.0299262,0.362055,0.0740878,-1.63947,0.641775,-14.5518,11.71875,15.3184,179.5125
486,55.68,761,1488,1486,1483,1520,0.0367289,0.243813,0.0432465,0.387971,-1.90322,-8.05519,12.158203125,15.3184,186.24421875
487,55.778,795,1489,1488,1502,1517,0.0367289,0.243813,0.0432465,0.387971,-1.90322,-8.05519,13.818359375,15.3184,211.67515625
488,55.881,780,1489,1488,1513,1517,0.0423661,0.152903,-0.0141156,-0.649435,0.160798,-13.2875,13.0859375,15.3276,200.576015625
489,55.979,748,1489,1488,1515,1519,0.0587519,0.0739585,-0.0246112,0.36587,0.449556,-12.2029,11.5234375,15.3276,176.626640625
490,56.082,796,1489,1488,1515,1517,0.0683773,0.0116742,-0.036798,-0.966693,-0.14661,-10.8853,13.8671875,15.3276,212.550703125
491,56.18,769,1489,1488,1517,1517,0.0912163,-0.0319087,-0.0339018,1.79183,-1.1095,-7.39418,12.548828125,15.3275,192.342163086
492,56.282,763,1489,1486,1522,1520,0.107219,-0.0610741,-0.0559844,0.724136,0.102999,-8.94777,12.255859375,15.3275,187.85168457
493,56.38,800,1489,1488,1526,1517,0.129655,-0.0813209,-0.059078,0.434944,-0.23408,-9.52111,14.0625,15.3275,215.54296875
494,56.483,763,1489,1488,1532,1517,0.141773,-0.0915728,-0.0672188,-0.123771,-0.513123,-10.0269,12.255859375,15.3284,187.862714844
495,56.581,755,1489,1486,1544,1519,0.155246,-0.0876132,-0.0771323,-1.49723,1.06035,-11.9212,11.865234375,15.3284,181.875058594
496,56.683,908,1489,1486,1560,1520,0.172568,-0.086989,-0.0726332,-0.283958,-0.340823,-9.44357,19.3359375,15.3284,296.388984375
497,56.782,804,1489,1486,1565,1519,0.191875,-0.0827699,-0.056148,0.380955,-0.28747,-9.93123,14.2578125,15.28,217.859375
498,56.884,980,1489,1486,1587,1519,0.201728,-0.0746864,-0.130847,-0.167927,-0.505837,-10.6408,22.8515625,15.28,349.171875
499,56.982,814,1489,1488,1598,1519,0.218371,-0.0630112,-0.338858,0.423646,-0.69937,-14.879,14.74609375,15.28,225.3203125
500,57.085,783,1489,1486,1600,1519,0.227189,-0.0466395,-0.585997,0.893097,2.07754,-10.3629,13.232421875,15.2828,202.228457031
501,57.183,752,1489,1488,1601,1517,0.226384,-0.0443907,-0.654738,0.198685,-0.116641,-8.5972,11.71875,15.2828,179.0953125
502,57.286,805,1489,1488,1601,1517,0.222864,-0.0326693,-0.66222,0.136471,0.509703,-10.3008,14.306640625,15.2828,218.645527344
503,57.384,766,1489,1488,1601,1517,0.221371,-0.0216025,-0.665059,0.596919,-1.05878,-7.58518,12.40234375,15.2885,189.613232422
504,57.486,751,1489,1486,1601,1520,0.223784,-0.0102376,-0.661119,0.773064,0.28979,-8.81712,11.669921875,15.2885,178.415600586
505,57.585,774,1489,1486,1601,1519,0.223295,0.00423332,-0.676857,-1.37729,0.539839,-11.2131,12.79296875,15.2885,195.585302734
506,57.687,777,1489,1488,1601,1519,0.228013,0.0114392,-0.666174,0.213676,0.545235,-9.51534,12.939453125,15.2923,197.873999023
507,57.785,760,1489,1488,1601,1519,0.225465,0.0265791,-0.66513,-0.391763,0.749017,-9.54957,12.109375,15.2923,185.180195312
508,57.888,768,1489,1486,1600,1520,0.221246,0.0388311,-0.66703,0.301831,0.469733,-9.13661,12.5,15.2923,191.15375
509,57.986,795,1489,1486,1601,1520,0.224909,0.0452951,-0.663485,0.939571,-0.895918,-7.86913,13.818359375,15.3044,211.481699219
510,58.089,767,1489,1488,1600,1517,0.224771,0.056706,-0.666685,0.186655,0.573722,-10.5685,12.451171875,15.3044,190.557714844
511,58.187,750,1489,1486,1600,1519,0.230595,0.0545939,-0.656177,1.21564,-0.118426,-6.75056,11.62109375,15.3044,177.853867187
512,58.29,799,1489,1486,1600,1519,0.226725,0.053087,-0.653302,-1.22425,-0.250789,-12.7675,14.013671875,15.3095,214.54230957
513,58.387,807,1489,1487,1599,1519,0.230427,0.0458939,-0.646769,0.237324,-0.121087,-8.45141,14.404296875,15.3095,220.522583008
514,58.49,765,1489,1486,1598,1520,0.230262,0.0340438,-0.645261,1.7639,0.498794,-8.05826,12.353515625,15.3095,189.126147461
515,58.588,702,1489,1488,1575,1519,0.221351,0.0195486,-0.628816,1.16215,-0.62465,-7.89247,9.27734375,15.3676,142.570507812
516,58.69,591,1489,1487,1558,1519,0.202485,0.00837055,-0.522626,-0.0843156,-0.386968,-7.44433,3.857421875,15.3676,59.2793164062
517,58.789,781,1489,1488,1521,1519,0.183448,-0.00319679,-0.136061,-0.232617,1.67981,-8.79611,13.134765625,15.3676,201.849824219
518,58.892,765,1489,1486,1486,1519,0.169312,-0.0231611,0.00983103,0.420469,-0.291685,-9.05488,12.353515625,15.3539,189.674643555
519,58.99,782,1489,1486,1486,1519,0.161694,-0.0278851,-0.00577172,-1.69067,-0.164869,-14.3268,13.18359375,15.3539,202.419580078
520,59.092,790,1489,1488,1484,1517,0.152022,-0.0281489,-0.000180633,-1.78107,0.931655,-13.13,13.57421875,15.3539,208.417197266
521,59.19,755,1489,1488,1485,1517,0.151673,-0.0289178,0.0052539,-0.241896,0.117584,-10.6706,11.865234375,15.3395,182.006762695
522,59.293,795,1489,1488,1488,1517,0.147599,-0.0185831,-0.0016009,-0.878463,-0.0377635,-13.6149,13.818359375,15.3395,211.966723633
523,59.391,781,1489,1486,1488,1519,0.146809,-0.0115316,-0.0120682,-0.724601,0.499623,-10.1929,13.134765625,15.3395,201.480737305
524,59.494,775,1489,1486,1488,1519,0.147398,-0.00120167,-0.0230745,-0.604431,0.213599,-10.627,12.841796875,15.3393,196.984174805
525,59.592,773,1489,1488,1488,1519,0.158168,0.0103688,-0.0081596,2.70947,0.319399,-6.34226,12.744140625,15.3393,195.486196289
526,59.694,743,1489,1488,1488,1519,0.161678,0.0189167,-0.0104023,0.11184,1.76487,-11.9015,11.279296875,15.3393,173.016518555
527,59.792,743,1490,1488,1488,1519,0.172168,0.0267733,-0.00178468,-0.0342353,-0.630268,-8.26356,11.279296875,15.3393,173.016518555
528,59.895,794,1531,1486,1488,1519,0.183019,0.0477864,0.0280085,1.19387,-1.05178,-5.8331,13.76953125,15.3329,211.126845703
529,59.994,725,1531,1486,1488,1519,0.18846,0.071831,0.0426805,-0.953962,1.48452,-10.5295,10.400390625,15.3329,159.468149414
530,60.095,791,1591,1488,1488,1519,0.183629,0.0505936,0.0778796,0.529572,-2.22149,-7.77211,13.623046875,15.3329,208.88081543
531,60.194,815,1637,1486,1488,1519,0.162452,-0.063634,0.0759795,1.82652,0.112312,-8.90497,14.794921875,15.3329,226.849057617
532,60.296,775,1680,1488,1488,1519,0.122651,-0.296779,-0.0359225,0.396679,1.09083,-11.9271,12.841796875,15.3329,196.901987305
533,60.394,791,1689,1488,1488,1519,0.0880767,-0.620755,-0.180634,1.72069,-1.40714,-9.08601,13.623046875,15.3267,208.796352539
534,60.497,824,1690,1488,1488,1519,0.047265,-0.995341,-0.371938,0.682169,-1.00806,-8.47478,15.234375,15.3267,233.492695313
535,60.599,811,1690,1486,1488,1519,0.0142279,-1.37728,-0.598125,-0.655661,-1.64672,-11.9381,14.599609375,15.3267,223.763833008
536,60.697,803,1690,1488,1488,1519,-0.00729062,-1.76698,-0.689577,-1.36007,0.656924,-11.936,14.208984375,15.317,217.639013672
537,60.8,798,1690,1486,1488,1520,-0.00569161,-2.14036,-0.655084,0.59741,0.258831,-9.22202,13.96484375,15.317,213.899511719
538,60.898,786,1690,1488,1488,1519,-0.00259562,-2.41778,-0.598392,-1.48222,1.24118,-13.0741,13.37890625,15.317,204.924707031
539,61.001,783,1690,1488,1488,1519,0.0041108,-2.63241,-0.502187,0.741617,-1.02955,-9.88161,13.232421875,15.324,202.773632813
540,61.099,805,1690,1486,1488,1519,0.000221174,-2.79093,-0.430171,-0.334081,-0.652355,-12.2387,14.306640625,15.324,219.234960938
541,61.201,775,1690,1486,1488,1519,-0.00849514,-2.89838,-0.368191,-1.1976,1.21247,-12.2098,12.841796875,15.324,196.787695313
542,61.3,779,1690,1488,1488,1519,-0.00455521,-2.98698,-0.310584,1.42498,-1.61575,-11.4861,13.037109375,15.3182,199.705048828
543,61.402,801,1690,1486,1487,1520,-0.000457974,-3.04759,-0.264034,1.92138,-0.345281,-8.60674,14.111328125,15.3182,216.160146484
544,61.5,758,1690,1488,1488,1519,-0.00934164,-3.09849,-0.241342,-1.80231,1.63355,-12.5354,12.01171875,15.3182,183.997910156
545,61.603,767,1690,1486,1487,1520,-0.0145131,-3.14251,-0.187392,-1.46397,0.153119,-9.29446,12.451171875,15.3267,190.835375977
546,61.701,727,1690,1488,1488,1519,-0.0166673,-3.17809,-0.141556,-1.8413,0.700018,-13.5426,10.498046875,15.3267,160.900415039
547,61.803,776,1690,1486,1487,1519,-0.0162148,-3.2167,-0.0915127,-0.983884,-2.48058,-11.9114,12.890625,15.3267,197.570742188
548,61.902,752,1690,1486,1487,1520,-0.0170106,-3.2397,-0.044204,1.46083,-0.9547,-8.63025,11.71875,15.3267,179.609765625
549,62.004,776,1690,1488,1488,1517,-0.0213213,-3.24397,-0.0283755,-1.61793,2.33218,-12.1355,12.890625,15.3209,197.495976563
550,62.103,789,1690,1488,1488,1517,-0.0241393,-3.25996,-0.00496507,-2.20856,1.95537,-14.2206,13.525390625,15.3209,207.221157227
551,62.205,803,1690,1488,1488,1519,-0.0186672,-3.27742,0.0411241,1.51575,-1.71517,-5.51944,14.208984375,15.3209,217.694428711
552,62.304,784,1690,1488,1488,1519,-0.0252436,-3.2779,0.0453993,-0.718263,0.565794,-10.8323,13.28125,15.3199,203.467421875
553,62.405,775,1690,1486,1487,1520,-0.0232029,-3.28579,0.0579843,0.769951,-0.97143,-8.23871,12.841796875,15.3199,196.735043945
554,62.504,759,1690,1488,1488,1519,-0.0246113,-3.27809,0.0729444,1.05724,1.82079,-5.37869,12.060546875,15.3199,184.76637207
555,62.606,779,1690,1488,1488,1517,-0.0246113,-3.27809,0.0729444,1.05724,1.82079,-5.37869,13.037109375,15.3106,199.605966797
556,62.705,779,1690,1488,1488,1519,-0.0266768,-3.27617,0.0681706,-1.08383,3.90643,-8.7182,13.037109375,15.3106,199.605966797
557,62.807,799,1690,1486,1487,1520,-0.0313656,-3.28194,0.0726582,0.835359,0.145686,-4.98266,14.013671875,15.3022,214.440009766
558,62.906,783,1690,1486,1487,1520,-0.0313656,-3.28194,0.0726582,0.835359,0.145686,-4.98266,13.232421875,15.3022,202.485166016
559,63.007,769,1688,1486,1488,1519,-0.0315208,-3.28099,0.051636,-0.726103,1.24152,-15.6015,12.548828125,15.3022,192.024677734
560,63.106,780,1680,1486,1487,1519,-0.0304186,-3.27363,0.0735405,2.95566,-0.659416,-8.79064,13.0859375,15.3022,200.243632812
561,63.208,736,1624,1488,1488,1519,-0.0334974,-3.25901,0.107769,2.45757,-0.863801,-8.30751,10.9375,15.2973,167.31421875
562,63.307,807,1530,1489,1488,1517,-0.0401137,-3.1728,0.340312,-0.78296,0.0677786,-8.61263,14.404296875,15.2973,220.346850586
563,63.409,847,1488,1488,1488,1519,-0.0448812,-2.89229,0.79103,0.214151,2.62673,-10.4275,16.357421875,15.2831,249.992114258
564,63.507,815,1488,1486,1487,1520,-0.0552247,-2.40817,1.10978,-0.370132,-0.623919,-14.1648,14.794921875,15.2831,226.112270508
565,63.61,784,1488,1486,1487,1520,-0.0702252,-1.8287,1.15932,-0.782128,1.93406,-14.7123,13.28125,15.2831,202.978671875
566,63.708,791,1488,1488,1488,1517,-0.0689021,-1.43747,0.960672,1.48664,-0.800675,-2.67307,13.623046875,15.2831,208.202387695
567,63.811,731,1488,1488,1488,1519,-0.0627304,-1.11717,0.677889,-0.921228,-1.04946,-12.752,10.693359375,15.2803,163.397739258
568,63.909,799,1488,1488,1488,1520,-0.0515201,-0.848342,0.517165,1.07839,2.19151,-9.77022,14.013671875,15.2803,214.133110352
569,64.011,799,1487,1486,1487,1520,-0.0422067,-0.646138,0.398988,1.29415,-1.06166,-8.69918,14.013671875,15.2781,214.102280273
570,64.11,816,1488,1488,1488,1519,-0.028496,-0.479273,0.295267,0.566723,-1.54346,-10.989,14.84375,15.2781,226.784296875
571,64.212,839,1488,1488,1488,1519,-0.0280695,-0.346457,0.213784,0.124265,2.26772,-10.746,15.966796875,15.2781,243.942319336
572,64.31,792,1488,1486,1488,1517,-0.0225916,-0.240657,0.143322,-1.66676,0.00116182,-13.5589,13.671875,15.2762,208.854296875
573,64.412,832,1486,1486,1502,1517,-0.0296004,-0.148761,0.0735243,-1.91544,1.64964,-14.7414,15.625,15.2762,238.690625
574,64.511,790,1487,1486,1519,1517,-0.0356843,-0.0900375,0.0111316,-0.982134,0.0581918,-12.6629,13.57421875,15.2762,207.362480469
575,64.613,758,1488,1486,1522,1517,-0.0595967,-0.0383683,-0.0643855,0.438242,1.77246,-13.3952,12.01171875,15.2766,183.498222656
576,64.711,800,1487,1486,1524,1517,-0.077524,-0.00247241,-0.132163,-0.225078,0.978807,-10.9105,14.0625,15.2766,214.8271875
577,64.814,795,1487,1486,1524,1517,-0.10289,0.0284981,-0.175714,-0.133226,-0.919026,-9.8181,13.818359375,15.2766,211.097548828
578,64.913,783,1487,1486,1524,1517,-0.130047,0.0576476,-0.212781,0.347354,-0.235597,-9.5887,13.232421875,15.2773,202.155678711
579,65.014,762,1488,1487,1524,1517,-0.160533,0.0754672,-0.235893,0.0304319,-0.353165,-9.86416,12.20703125,15.2773,186.490478516
580,65.113,773,1488,1486,1524,1517,-0.17815,0.0861141,-0.24585,-0.0126835,0.463311,-11.2258,12.744140625,15.2773,194.69605957
581,65.215,749,1486,1486,1524,1519,-0.195915,0.0860715,-0.245415,0.241367,-1.03546,-9.56964,11.572265625,15.2773,176.792973633
582,65.314,779,1486,1487,1524,1520,-0.216781,0.0869792,-0.258397,-0.595793,0.0807766,-12.1372,13.037109375,15.2843,199.26309082
583,65.416,765,1485,1486,1524,1519,-0.228455,0.0800977,-0.249636,0.895956,-0.0901699,-9.43896,12.353515625,15.2843,188.814838867
584,65.515,767,1464,1486,1524,1519,-0.248995,0.0762805,-0.25984,0.037013,-0.661443,-10.1957,12.451171875,15.2843,190.307446289
585,65.617,767,1411,1486,1524,1517,-0.25858,0.0742463,-0.25271,-0.55945,1.7889,-12.8933,12.451171875,15.2868,190.338574219
586,65.715,773,1322,1488,1524,1519,-0.253364,0.0619721,-0.223333,0.323969,-1.11907,-10.5612,12.744140625,15.2868,194.817128906
587,65.817,738,1285,1486,1524,1519,-0.229056,0.100933,-0.211247,0.575247,2.0876,-10.8401,11.03515625,15.2868,168.692226562
588,65.916,797,1285,1486,1524,1519,-0.176574,0.193873,-0.219523,-0.311816,-0.662348,-14.3003,13.916015625,15.2926,212.812060547
589,66.018,811,1231,1491,1524,1519,-0.12138,0.397987,-0.262943,-3.26789,2.25406,-15.4347,14.599609375,15.2926,223.265986328
590,66.116,828,1231,1491,1524,1519,-0.0593033,0.666862,-0.371118,-1.32848,1.44491,-15.2516,15.4296875,15.2926,235.960039063
591,66.219,820,1232,1490,1524,1519,-0.0147332,0.960995,-0.521366,0.237842,0.619297,-12.8477,15.0390625,15.2809,229.810410156
592,66.317,807,1232,1490,1524,1519,0.0100854,1.29945,-0.709945,-1.96602,1.42823,-11.1415,14.404296875,15.2809,220.110620117
593,66.42,789,1232,1490,1524,1519,0.0442283,1.65917,-0.920713,-0.956837,-1.13929,-11.4799,13.525390625,15.2809,206.680141602
594,66.518,811,1232,1489,1524,1519,0.0655946,2.02828,-1.14734,-2.1767,0.877252,-12.6351,14.599609375,15.262,222.819238281
595,66.62,783,1232,1490,1524,1519,0.108725,2.42314,-1.3845,-0.673795,-3.06885,-12.3397,13.232421875,15.262,201.953222656
596,66.718,777,1232,1490,1524,1519,0.146347,2.8425,-1.48558,0.584446,-2.62249,-8.46961,12.939453125,15.262,197.481933594
597,66.821,816,1232,1490,1524,1517,0.180181,3.29276,-1.42811,0.563574,0.831238,-10.7011,14.84375,15.2474,226.32859375
598,66.919,791,1231,1491,1524,1520,0.190198,3.67229,-1.28755,2.0033,-1.31556,-5.24881,13.623046875,15.2474,207.716044922
599,67.022,743,1232,1489,1524,1517,0.186726,3.96184,-1.14204,0.61682,1.32927,-9.53994,11.279296875,15.2474,171.979951172
600,67.12,774,1239,1489,1524,1519,0.179418,4.15615,-0.97965,0.835615,-0.963707,-10.2944,12.79296875,15.2604,195.225820313
601,67.222,788,1245,1489,1524,1519,0.172828,4.31264,-0.732637,-0.127011,-1.56753,-10.8439,13.4765625,15.2604,205.657734375
602,67.321,783,1248,1489,1524,1519,0.160806,4.39196,-0.5557,0.663286,-2.97486,-9.41953,13.232421875,15.2604,201.932050781
603,67.423,768,1248,1490,1524,1520,0.158687,4.43581,-0.434503,-0.680793,0.381834,-11.6963,12.5,15.259,190.7375
604,67.522,783,1250,1490,1524,1519,0.158849,4.45317,-0.365578,-1.00828,1.87525,-9.44173,13.232421875,15.259,201.913525391
605,67.623,758,1250,1490,1524,1519,0.17337,4.44266,-0.331791,0.920802,-2.82416,-4.843,12.01171875,15.259,183.286816406
606,67.722,771,1251,1490,1523,1519,0.173897,4.44658,-0.321438,-0.192292,0.799189,-12.3072,12.646484375,15.2656,193.056171875
607,67.824,784,1252,1489,1524,1520,0.187499,4.43521,-0.277976,1.36019,-0.381949,-7.21136,13.28125,15.2656,202.74625
608,67.923,802,1252,1490,1524,1517,0.195592,4.41524,-0.261993,0.936035,-0.740679,-13.2105,14.16015625,15.2656,216.16328125
609,68.025,815,1253,1490,1524,1519,0.188944,4.3952,-0.245123,2.68317,-1.43205,-5.2366,14.794921875,15.2815,226.088598633
610,68.123,775,1264,1490,1524,1519,0.182138,4.38613,-0.232983,3.49728,-1.97537,-8.77464,12.841796875,15.2815,196.241918945
611,68.226,784,1264,1490,1524,1519,0.17934,4.36206,-0.166684,1.00543,-0.50067,-13.7292,13.28125,15.2815,202.957421875
612,68.324,812,1268,1490,1523,1520,0.173687,4.3197,-0.0704704,2.34177,-2.13734,-6.77338,14.6484375,15.2867,223.926269531
613,68.426,822,1270,1490,1524,1520,0.165951,4.25651,-0.0628355,-0.570089,-3.17,-10.9065,15.13671875,15.2867,231.390478516
614,68.525,768,1275,1488,1524,1519,0.160135,4.1964,-0.0695542,0.880964,-0.826573,-8.92271,12.5,15.2867,191.08375
615,68.627,803,1278,1488,1524,1519,0.154164,4.12202,-0.0462207,0.873513,-3.1732,-5.71742,14.208984375,15.2762,217.059287109
616,68.725,814,1280,1488,1524,1520,0.147853,4.04943,-0.0886835,0.0710339,-4.00995,-10.8881,14.74609375,15.2762,225.264277344
617,68.828,784,1283,1489,1524,1517,0.141412,3.98746,-0.13227,-1.09192,0.298193,-11.5932,13.28125,15.2762,202.88703125
618,68.926,785,1286,1489,1524,1519,0.1481,3.91528,-0.126492,1.61036,0.818341,-7.86059,13.330078125,15.2689,203.535629883
619,69.029,778,1293,1487,1524,1520,0.143527,3.84731,-0.116858,2.01497,1.31687,-13.7968,12.98828125,15.2689,198.316767578
620,69.127,789,1326,1486,1524,1519,0.120533,3.7634,-0.0719535,-2.41768,0.459947,-7.8827,13.525390625,15.2689,206.517836914
621,69.23,768,1326,1486,1524,1519,0.116275,3.65699,0.0582157,1.40553,0.759784,-12.4938,12.5,15.2573,190.71625
622,69.327,786,1358,1486,1524,1520,0.0922685,3.47421,0.341943,-2.33413,-0.717821,-14.4394,13.37890625,15.2573,204.125986328
623,69.43,819,1411,1486,1524,1519,0.0896889,3.1225,0.711805,1.10042,-0.0579686,-11.8697,14.990234375,15.2573,228.71050293
624,69.528,846,1486,1485,1524,1520,0.0896889,3.1225,0.711805,1.10042,-0.0579686,-11.8697,16.30859375,15.2355,248.469580078
625,69.631,811,1490,1485,1524,1519,0.0528976,2.05603,0.926291,0.456706,-1.24926,-7.01671,14.599609375,15.2355,222.432348633
626,69.729,871,1489,1488,1524,1520,0.0528976,2.05603,0.926291,0.456706,-1.24926,-7.01671,17.529296875,15.2355,267.067602539
627,69.831,850,1489,1488,1524,1520,0.0787269,1.62276,0.623881,0.575095,-0.298776,-9.36417,16.50390625,15.2272,251.30828125
628,69.93,800,1489,1485,1524,1519,0.0706102,1.27552,0.32189,-0.622171,1.03324,-12.9008,14.0625,15.2272,214.1325
629,70.032,752,1489,1488,1524,1520,0.0704509,0.98602,0.106598,-0.366537,0.704759,-13.5915,11.71875,15.2272,178.44375
630,70.13,791,1489,1485,1524,1519,0.0786491,0.741051,-0.017673,0.576853,0.367759,-12.9356,13.623046875,15.2224,207.37546875
631,70.233,756,1489,1485,1524,1517,0.0824604,0.549963,-0.0917527,1.07559,-0.549762,-8.99706,11.9140625,15.2224,181.360625
632,70.331,799,1489,1485,1543,1517,0.07728,0.411638,-0.156874,1.36661,-1.85026,-6.84064,14.013671875,15.2224,213.32171875
633,70.433,560,1489,1488,1561,1519,0.0675334,0.295419,-0.19929,1.18207,-0.0746677,-10.7729,2.34375,15.2564,35.7571875
634,70.532,795,1489,1485,1565,1517,0.0490827,0.190719,-0.131695,-0.0267038,-0.603549,-7.76956,13.818359375,15.2564,210.818417969
635,70.634,769,1489,1488,1568,1519,0.0402468,0.11884,-0.0887624,1.96625,-0.745328,-5.85456,12.548828125,15.2564,191.449941406
636,70.732,789,1489,1485,1569,1517,0.0297068,0.0496135,-0.168049,0.627247,-2.30791,-9.61911,13.525390625,15.2497,206.258149414
637,70.835,757,1489,1485,1569,1519,0.0231536,0.0113676,-0.200275,0.617293,-1.99261,-9.72512,11.962890625,15.2497,182.430493164
638,70.933,755,1489,1485,1568,1517,0.016495,-0.0081065,-0.191376,0.552755,0.946391,-6.87652,11.865234375,15.2497,180.941264648
639,71.036,783,1489,1485,1569,1517,0.0190071,-0.0195951,-0.198319,0.673576,-1.66732,-8.22041,13.232421875,15.251,201.807666016
640,71.138,741,1489,1488,1568,1520,0.0252127,-0.0177074,-0.189474,2.32827,1.21538,-6.85826,11.181640625,15.251,170.531201172
641,71.236,792,1489,1485,1569,1517,0.0217067,-0.0133878,-0.210419,-2.72347,1.26767,-14.1326,13.671875,15.251,208.509765625
642,71.339,772,1489,1485,1569,1519,0.0425952,-0.00780413,-0.19888,0.234086,0.310936,-10.2405,12.6953125,15.2499,193.602246094
643,71.437,743,1489,1485,1570,1519,0.0506887,0.00303378,-0.212249,-1.05779,0.759118,-11.8609,11.279296875,15.2499,172.008149414
644,71.539,797,1489,1485,1572,1517,0.063226,0.0136401,-0.209516,0.115371,0.270638,-9.24703,13.916015625,15.2499,212.21784668
645,71.638,791,1489,1488,1573,1519,0.0838094,0.023822,-0.23576,2.92599,-0.552041,-7.38432,13.623046875,15.2532,207.795058594
646,71.74,775,1489,1485,1573,1517,0.0979523,0.0318836,-0.268417,-0.541966,0.903247,-12.5063,12.841796875,15.2532,195.878496094
647,71.838,823,1489,1485,1573,1517,0.114739,0.0399338,-0.256333,1.0795,0.252837,-9.66467,15.185546875,15.2532,231.628183594
648,71.941,769,1489,1485,1572,1517,0.125982,0.0435985,-0.257971,0.50431,0.128926,-9.55071,12.548828125,15.2599,191.493862305
649,72.039,763,1489,1485,1572,1517,0.143793,0.0447375,-0.252726,-0.0162364,-1.13507,-11.4089,12.255859375,15.2599,187.023188477
650,72.142,752,1489,1488,1572,1520,0.17082,0.0520136,-0.245519,1.05866,0.398436,-7.48891,11.71875,15.2599,178.826953125
651,72.24,753,1489,1485,1565,1519,0.188853,0.0598568,-0.237342,0.307695,-0.494834,-11.1924,11.767578125,15.2701,179.692094727
652,72.342,713,1489,1485,1565,1519,0.204046,0.0763339,-0.192875,1.54111,-0.587541,-9.10936,9.814453125,15.2701,149.867680664
653,72.441,735,1489,1485,1557,1520,0.213611,0.0929575,-0.130164,-0.299304,-1.01008,-7.85026,10.888671875,15.2701,166.271108398
654,72.542,747,1489,1485,1557,1520,0.229669,0.119642,-0.06934,-0.454909,1.0816,-12.0802,11.474609375,15.2806,175.338916016
655,72.641,760,1489,1485,1537,1520,0.233637,0.133841,-0.0196837,-1.29447,0.700673,-11.319,12.109375,15.2806,185.038515625
656,72.744,779,1489,1485,1537,1520,0.246042,0.147675,0.020735,0.0950475,-0.614327,-11.8635,13.037109375,15.2806,199.214853516
657,72.842,759,1489,1485,1534,1520,0.237564,0.160607,0.034378,0.0565333,1.4361,-11.7299,12.060546875,15.2806,184.292392578
658,72.944,747,1492,1485,1534,1520,0.232657,0.155317,0.0644971,-0.130747,-1.04329,-10.5937,11.474609375,15.2806,175.338916016
659,73.043,754,1492,1485,1534,1520,0.234491,0.162055,0.0985525,-0.592668,0.580221,-11.6423,11.81640625,15.2806,180.561777344
660,73.145,741,1542,1488,1534,1518,0.240872,0.159081,0.123914,-0.430534,-1.32378,-8.78402,11.181640625,15.2817,170.874477539
661,73.243,839,1602,1485,1534,1518,0.211959,0.121837,0.138339,-1.71863,-0.278805,-12.3623,15.966796875,15.2817,243.999799805
662,73.345,779,1650,1486,1534,1518,0.17811,-0.0273069,0.113709,0.538682,1.574,-10.0029,13.037109375,15.2817,199.229194336
663,73.444,816,1687,1484,1534,1520,0.129918,-0.293384,-0.0358437,0.410528,1.2531,-10.9245,14.84375,15.2603,226.520078125
664,73.546,819,1700,1484,1534,1520,0.0847594,-0.642597,-0.21989,1.08443,-0.448999,-7.59685,14.990234375,15.2603,228.755473633
665,73.645,832,1709,1484,1534,1518,0.0401582,-1.04509,-0.45444,-0.31996,1.11349,-10.7475,15.625,15.2603,238.4421875
666,73.747,811,1709,1484,1534,1518,0.0154088,-1.44785,-0.691103,-0.378302,0.642308,-12.8851,14.599609375,15.2444,222.562285156
667,73.845,775,1710,1483,1534,1520,-0.00189991,-1.86662,-0.872558,-0.592832,0.979533,-11.27,12.841796875,15.2444,195.765488281
668,73.947,784,1710,1483,1534,1520,-0.00402743,-2.28967,-0.87238,-0.151151,1.01321,-10.455,13.28125,15.2444,202.4646875
669,74.046,784,1710,1483,1534,1520,0.00256359,-2.62839,-0.802197,-0.879643,0.655523,-9.98525,13.28125,15.2429,202.444765625
670,74.149,751,1707,1482,1534,1520,0.0211486,-2.88766,-0.688583,1.03136,-0.490091,-8.37053,11.669921875,15.2429,177.883452148
671,74.247,760,1704,1483,1534,1518,0.018122,-3.08681,-0.548677,0.557367,-1.08269,-8.37559,12.109375,15.2429,184.581992188
672,74.349,781,1703,1483,1534,1518,0.0184059,-3.21438,-0.428929,-0.864227,0.516529,-11.5933,13.134765625,15.2513,200.322250977
673,74.447,787,1702,1484,1534,1518,0.0189831,-3.29884,-0.327472,1.63127,-0.104943,-6.03563,13.427734375,15.2513,204.790405273
674,74.55,735,1703,1483,1534,1520,0.00554413,-3.35466,-0.283188,0.351976,0.223075,-10.3299,10.888671875,15.2513,166.066401367
675,74.648,743,1703,1484,1534,1518,-0.000330184,-3.38603,-0.249338,1.25554,1.1557,-9.4876,11.279296875,15.2522,172.034091797
676,74.75,760,1703,1483,1534,1520,-0.0072117,-3.42328,-0.216523,0.672939,-1.11333,-12.6942,12.109375,15.2522,184.694609375
677,74.849,787,1702,1484,1534,1518,-0.0128975,-3.45032,-0.141546,1.80273,1.10646,-6.59079,13.427734375,15.2522,204.802490234
678,74.951,778,1703,1483,1534,1520,-0.0118776,-3.46463,-0.0955919,0.980809,2.5369,-7.87211,12.98828125,15.2516,198.092070312
679,75.05,791,1703,1483,1534,1520,-0.0116434,-3.48298,-0.0434879,2.00242,1.75876,-5.20615,13.623046875,15.2516,207.773261719
680,75.152,784,1703,1483,1534,1520,-0.024041,-3.48972,-0.0342356,-0.329325,4.09775,-8.60342,13.28125,15.2516,202.5603125
681,75.25,791,1702,1483,1534,1520,-0.0252122,-3.50202,-0.0171474,-1.23224,4.0856,-10.6493,13.623046875,15.2496,207.746015625
682,75.352,821,1701,1484,1534,1518,-0.00960636,-3.51595,0.0251046,3.3436,-1.06323,-4.34109,15.087890625,15.2496,230.084296875
683,75.451,760,1698,1483,1534,1520,-0.0125682,-3.51091,0.0327495,-0.638496,1.17974,-10.9147,12.109375,15.2496,184.663125
684,75.553,790,1696,1483,1535,1520,-0.00582889,-3.50342,0.0708131,-0.686962,1.85283,-14.2692,13.57421875,15.2388,206.854804688
685,75.651,789,1692,1483,1534,1520,-0.010544,-3.47476,0.122768,-1.63481,2.48423,-13.5481,13.525390625,15.2388,206.110722656
686,75.754,746,1691,1484,1534,1520,-0.0107308,-3.44759,0.151441,-1.43485,1.89587,-16.3368,11.42578125,15.2388,174.115195312
687,75.852,779,1691,1484,1534,1520,-0.0051265,-3.40776,0.133994,-1.1894,3.33787,-12.4428,13.037109375,15.23,198.555175781
688,75.955,796,1690,1485,1534,1518,0.00417842,-3.38291,0.119925,0.936729,1.26479,-7.4583,13.8671875,15.23,211.197265625
689,76.053,769,1688,1485,1534,1518,0.00567725,-3.35521,0.103492,-0.18503,2.46256,-9.72522,12.548828125,15.23,191.118652344
690,76.155,836,1685,1484,1534,1518,0.00257339,-3.33133,0.119558,-1.40069,0.905292,-11.5883,15.8203125,15.2346,241.016132813
691,76.254,798,1660,1485,1534,1520,0.00781855,-3.27682,0.225246,1.81147,0.961503,-6.84861,13.96484375,15.2346,212.748808594
692,76.356,815,1605,1490,1534,1518,-0.00314347,-3.11571,0.538448,-2.19939,0.726663,-15.1916,14.794921875,15.2346,225.394716797
693,76.454,803,1552,1490,1534,1520,-0.00974139,-2.72243,0.985567,0.240697,2.72099,-12.149,14.208984375,15.2204,216.266425781
694,76.556,743,1504,1490,1534,1518,-0.0198121,-2.16391,1.20595,-1.52503,1.10713,-15.1733,11.279296875,15.2204,171.675410156
695,76.655,815,1490,1489,1534,1520,-0.0195724,-1.6688,1.14593,0.58833,0.824947,-6.27431,14.794921875,15.2204,225.184628906
696,76.757,785,1489,1489,1534,1520,-0.0237003,-1.28797,0.886844,-0.28494,2.5193,-11.0629,13.330078125,15.2157,202.826469727
697,76.856,753,1489,1489,1534,1520,-0.0246493,-0.988232,0.641939,0.212407,-0.125138,-12.3833,11.767578125,15.2157,179.051938477
698,76.958,782,1489,1489,1534,1518,-0.0246493,-0.988232,0.641939,0.212407,-0.125138,-12.3833,13.18359375,15.2157,200.597607422
699,77.057,789,1488,1489,1534,1520,-0.0347553,-0.743278,0.482533,-2.11248,0.639456,-13.2923,13.525390625,15.2173,205.819926758
700,77.159,819,1488,1489,1534,1520,-0.0164777,-0.547368,0.38753,1.00809,1.92148,-10.1011,14.990234375,15.2173,228.110893555
701,77.257,823,1488,1487,1534,1520,-0.0191659,-0.399885,0.300555,0.80397,1.19209,-7.99082,15.185546875,15.2173,231.083022461
702,77.359,803,1488,1487,1534,1520,-0.0251081,-0.272265,0.214008,-0.28795,1.00756,-9.05438,14.208984375,15.2129,216.159858398
703,77.458,813,1488,1489,1535,1517,-0.0311853,-0.175263,0.125632,0.436782,1.32026,-11.284,14.697265625,15.2129,223.588032227
704,77.56,791,1488,1489,1565,1516,-0.0304562,-0.107189,0.0413073,0.0627951,-0.478742,-8.91355,13.623046875,15.2129,207.246049805
705,77.659,751,1487,1489,1567,1518,-0.0380263,-0.0510061,-0.0503689,-1.25492,0.299433,-12.8172,11.669921875,15.2039,177.428325195
706,77.761,776,1487,1489,1567,1517,-0.0369271,-0.0116412,-0.178769,0.0805951,-1.0616,-11.4567,12.890625,15.2039,195.987773438
707,77.859,789,1488,1489,1567,1517,-0.0478983,0.0180683,-0.184798,-0.403231,0.540837,-9.61552,13.525390625,15.2039,205.638686523
708,77.961,800,1488,1485,1567,1517,-0.0493501,0.0349146,-0.177725,0.439298,-0.534625,-8.66405,14.0625,15.2,213.75
709,78.06,768,1488,1483,1567,1518,-0.0630621,0.0434855,-0.185232,-0.398824,-1.32374,-10.3508,12.5,15.2,190.0
710,78.162,760,1489,1464,1567,1518,-0.0749671,0.0519781,-0.183666,-0.328626,0.173191,-11.2178,12.109375,15.2,184.0625
711,78.261,778,1489,1440,1567,1517,-0.0878842,0.0558014,-0.181732,0.496193,-0.27121,-10.1813,12.98828125,15.2208,197.69203125
712,78.364,791,1490,1435,1567,1517,-0.102691,0.0584826,-0.175316,-0.0980555,0.333303,-10.294,13.623046875,15.2208,207.353671875
713,78.461,747,1490,1436,1566,1517,-0.108925,0.050167,-0.181062,1.32823,-0.327944,-8.63294,11.474609375,15.2208,174.652734375
714,78.564,787,1490,1431,1567,1517,-0.110307,0.0353691,-0.181233,-1.0592,0.620363,-11.2417,13.427734375,15.2208,204.380859375
715,78.662,760,1490,1423,1567,1517,-0.111356,0.0142265,-0.178065,2.00257,-0.373047,-8.10144,12.109375,15.2208,184.314375
716,78.764,767,1489,1417,1567,1517,-0.135215,-0.00139384,-0.190965,-0.942804,-0.0087252,-10.8179,12.451171875,15.2208,189.516796875
717,78.863,735,1490,1409,1567,1517,-0.16923,-0.0151319,-0.190978,-0.193833,-0.33555,-11.8547,10.888671875,15.2206,165.732119141
718,78.965,778,1490,1379,1566,1517,-0.237756,-0.0216686,-0.215044,-0.858024,0.258337,-11.4599,12.98828125,15.2206,197.689433594
719,79.063,789,1489,1373,1566,1517,-0.322365,-0.0216902,-0.239306,-0.724255,-0.498022,-11.1841,13.525390625,15.2206,205.864560547
720,79.166,807,1490,1372,1566,1517,-0.460986,-0.0224116,-0.300821,-0.920848,-0.790512,-11.3671,14.404296875,15.2208,219.244921875
721,79.265,788,1489,1370,1566,1517,-0.644829,-0.0170036,-0.322004,0.457352,-0.169452,-10.3158,13.4765625,15.2208,205.1240625
722,79.366,780,1489,1363,1566,1517,-0.848127,-0.0116835,-0.370806,0.860539,-1.50297,-7.80589,13.0859375,15.2208,199.1784375
723,79.465,808,1489,1364,1566,1517,-1.02547,-0.000165522,-0.414861,0.255692,1.24152,-11.6989,14.453125,15.2181,219.949101563
724,79.567,801,1489,1364,1566,1517,-1.18021,-0.00430767,-0.411821,0.175138,-1.06338,-10.5999,14.111328125,15.2181,214.747602539
725,79.665,739,1489,1369,1566,1517,-1.29886,-0.00225969,-0.402242,0.334503,0.613942,-12.4011,11.083984375,15.2181,168.677182617
726,79.768,779,1489,1375,1566,1517,-1.39067,-0.00477905,-0.372289,1.30237,-1.10841,-9.82448,13.037109375,15.2156,198.367441406
727,79.866,749,1489,1380,1567,1517,-1.43794,0.00626453,-0.304429,0.946657,-0.647218,-7.22665,11.572265625,15.2156,176.078964844
728,79.968,741,1490,1385,1567,1517,-1.44994,0.0155706,-0.245041,1.25803,1.02003,-6.93279,11.181640625,15.2156,170.135371094
729,80.067,775,1490,1385,1567,1517,-1.42745,0.0133295,-0.205163,-0.0185772,-0.346724,-7.80948,12.841796875,15.2132,195.364824219
730,80.169,739,1490,1393,1567,1517,-1.38503,0.00899232,-0.194687,0.397547,-0.858831,-8.36187,11.083984375,15.2132,168.622871094
731,80.268,773,1490,1393,1567,1517,-1.3312,0.00220005,-0.193332,-0.326409,0.45844,-9.82247,12.744140625,15.2132,193.879160156
732,80.37,722,1490,1395,1567,1517,-1.27717,-0.0024617,-0.17481,1.7061,-1.3919,-8.65434,10.25390625,15.2051,155.911669922
733,80.468,767,1489,1396,1566,1517,-1.21515,-0.00159013,-0.17144,0.909588,-1.15322,-10.0555,12.451171875,15.2051,189.321313477
734,80.571,781,1489,1396,1566,1517,-1.16113,0.00295509,-0.193892,0.0408859,0.569004,-11.8672,13.134765625,15.2051,199.715424805
735,80.669,783,1490,1396,1567,1517,-1.10252,-0.00104636,-0.20448,-0.676385,0.986927,-10.9789,13.232421875,15.2079,201.237348633
736,80.771,763,1490,1396,1567,1517,-1.05997,-0.0110292,-0.202975,1.02906,-0.21441,-6.99786,12.255859375,15.2079,186.385883789
737,80.87,792,1490,1396,1567,1517,-1.02715,-0.00982905,-0.216414,0.880971,0.693956,-10.2652,13.671875,15.2079,207.920507813
738,80.972,767,1490,1396,1567,1517,-1.01416,-0.00577104,-0.225325,-0.0882649,0.784442,-11.4165,12.451171875,15.2011,189.271508789
739,81.071,761,1490,1398,1567,1517,-0.996734,-0.00686349,-0.220096,2.18326,-0.646872,-8.26203,12.158203125,15.2011,184.818061523
740,81.173,803,1490,1397,1567,1518,-0.991726,-0.00115892,-0.223317,0.565254,1.06241,-10.8239,14.208984375,15.2011,215.992192383
741,81.271,776,1490,1397,1567,1518,-0.990017,0.00354546,-0.233567,-1.70047,1.64391,-13.8712,12.890625,15.2029,195.974882812
742,81.374,775,1490,1397,1567,1517,-0.979044,0.00166226,-0.224723,1.01447,0.808799,-8.68277,12.841796875,15.2029,195.232553711
743,81.472,775,1489,1399,1567,1517,-0.969584,-0.00136451,-0.229171,1.52213,1.42157,-9.38458,12.841796875,15.2029,195.232553711
744,81.575,784,1490,1399,1566,1517,-0.969205,-0.00805995,-0.236289,-0.715158,0.453304,-14.7627,13.28125,15.2088,201.991875
745,81.673,776,1490,1397,1567,1517,-0.955133,-0.00659907,-0.231555,-0.409937,3.485,-13.0743,12.890625,15.2088,196.0509375
746,81.775,800,1490,1398,1567,1517,-0.941904,-0.0142605,-0.236881,2.22566,1.95831,-8.67761,14.0625,15.2088,213.87375
747,81.877,763,1490,1400,1567,1518,-0.934334,-0.0124833,-0.243767,1.06,1.03236,-9.24304,12.255859375,15.209,186.399365234
748,81.975,749,1490,1402,1567,1517,-0.924196,-0.0155526,-0.234707,1.66726,-1.97931,-8.00271,11.572265625,15.209,176.002587891
749,82.078,743,1490,1405,1567,1517,-0.90527,-0.0164387,-0.222423,-0.0372643,-0.898613,-9.34308,11.279296875,15.209,171.546826172
750,82.176,767,1490,1409,1567,1518,-0.883478,-0.00887648,-0.214242,-0.760738,0.601321,-10.3971,12.451171875,15.2093,189.373608398
751,82.279,761,1490,1413,1567,1517,-0.835737,-0.0102475,-0.187151,0.902978,0.278197,-8.40118,12.158203125,15.2093,184.917758789
752,82.377,791,1490,1413,1567,1517,-0.788024,-0.00353731,-0.186836,1.7637,1.5677,-7.53525,13.623046875,15.2093,207.197006836
753,82.479,775,1489,1415,1566,1517,-0.754436,0.0015194,-0.187319,0.453578,1.42708,-10.7162,12.841796875,15.2058,195.269794922
754,82.578,779,1490,1413,1567,1518,-0.721442,0.00679032,-0.19902,-0.00648475,-0.379074,-11.079,13.037109375,15.2058,198.239677734
755,82.68,775,1489,1415,1566,1517,-0.677277,0.00720152,-0.190613,3.18122,-2.01723,-7.03388,12.841796875,15.2058,195.269794922
756,82.778,762,1490,1417,1566,1517,-0.651913,0.0119266,-0.194968,1.86647,-1.41622,-8.65482,12.20703125,15.2064,185.625
757,82.881,761,1489,1424,1567,1517,-0.614804,0.0178222,-0.196388,-1.39737,0.426601,-12.0513,12.158203125,15.2064,184.8825
758,82.979,719,1490,1426,1567,1517,-0.566737,0.0173315,-0.182629,1.07717,-0.25894,-8.37037,10.107421875,15.2064,153.6975
759,83.081,760,1489,1426,1567,1517,-0.506874,0.0118107,-0.183703,-0.167502,0.92615,-9.28966,12.109375,15.2047,184.119414062
760,83.18,805,1490,1425,1567,1517,-0.454131,0.00832053,-0.174926,-0.0146697,0.873534,-10.408,14.306640625,15.2047,217.528178711
761,83.282,769,1490,1428,1567,1517,-0.418742,0.00789957,-0.185266,-1.10179,0.360753,-12.707,12.548828125,15.2047,190.801166992
762,83.38,735,1489,1429,1567,1517,-0.3938,0.00805644,-0.183374,1.17323,0.259546,-8.02076,10.888671875,15.2038,165.549189453
763,83.483,767,1489,1429,1567,1517,-0.378453,0.0109139,-0.179183,-0.538878,0.165143,-10.4193,12.451171875,15.2038,189.305126953
764,83.581,775,1490,1434,1567,1517,-0.358712,0.0156076,-0.170562,1.42085,-0.972461,-8.37652,12.841796875,15.2038,195.244111328
765,83.684,764,1489,1441,1566,1519,-0.334783,0.0233548,-0.167071,1.57831,-2.1019,-9.9643,12.3046875,15.2081,187.130917969
766,83.782,774,1490,1460,1567,1517,-0.289005,0.029446,-0.177385,0.131089,-0.0580591,-12.5558,12.79296875,15.2081,194.556748047
767,83.884,784,1489,1489,1567,1517,-0.231292,0.0302162,-0.166198,0.500828,1.32296,-8.72418,13.28125,15.2081,201.982578125
768,83.983,780,1489,1488,1567,1517,-0.167585,0.0153871,-0.159928,0.423873,-0.492718,-7.52437,13.0859375,15.2032,198.948125
769,84.085,755,1489,1486,1567,1517,-0.113232,0.00444717,-0.16883,-0.65466,-1.4591,-9.25064,11.865234375,15.2032,180.38953125
770,84.183,752,1489,1488,1566,1517,-0.113232,0.00444717,-0.16883,-0.65466,-1.4591,-9.25064,11.71875,15.2032,178.1625
771,84.286,745,1489,1486,1567,1517,-0.0144324,0.00876027,-0.172448,-1.14077,2.29267,-12.5351,11.376953125,15.2043,172.978608398
772,84.384,783,1489,1488,1567,1517,-0.0144324,0.00876027,-0.172448,-1.14077,2.29267,-12.5351,13.232421875,15.2043,201.189711914
773,84.486,789,1488,1488,1567,1517,0.0342194,-0.00120408,-0.173138,1.19352,1.4231,-10.9878,13.525390625,15.2043,205.64409668
774,84.585,763,1488,1485,1566,1517,0.0635507,-0.0158522,-0.170968,-0.406273,1.89715,-12.2098,12.255859375,15.1986,186.271904297
775,84.687,773,1488,1488,1567,1519,0.106316,-0.0292917,-0.165208,0.937204,1.03128,-8.71909,12.744140625,15.1986,193.693095703
776,84.785,784,1488,1488,1567,1517,0.139204,-0.0242123,-0.169067,0.757006,1.95805,-9.61391,13.28125,15.1986,201.85640625
777,84.888,799,1488,1488,1567,1517,0.164674,-0.0336767,-0.172824,0.0225552,0.088287,-9.03334,14.013671875,15.198,212.979785156
778,84.986,795,1488,1488,1567,1517,0.191312,-0.0301063,-0.17852,-0.576944,0.63315,-10.3794,13.818359375,15.198,210.011425781
779,85.088,783,1488,1489,1567,1517,0.231133,-0.0249741,-0.170436,0.594832,-0.451267,-7.8978,13.232421875,15.198,201.106347656
780,85.187,791,1489,1491,1567,1517,0.274811,-0.0166711,-0.183855,-0.508763,-0.712445,-11.2741,13.623046875,15.2006,207.078486328
781,85.289,773,1488,1489,1566,1519,0.324974,-0.00635736,-0.190541,-0.571033,-1.55357,-11.3769,12.744140625,15.2006,193.718583984
782,85.387,791,1488,1485,1566,1520,0.372326,0.0078392,-0.180329,0.646078,0.688538,-8.94406,13.623046875,15.2006,207.078486328
783,85.49,755,1488,1485,1565,1520,0.404498,0.01649,-0.169403,-0.189753,0.597835,-9.46205,11.865234375,15.2117,180.490385742
784,85.588,776,1488,1485,1566,1520,0.440006,0.0320935,-0.167,1.95694,-0.159988,-9.14188,12.890625,15.2117,196.088320313
785,85.69,752,1488,1488,1565,1518,0.452656,0.0395158,-0.174613,-0.00651023,-0.419084,-10.9675,11.71875,15.2117,178.262109375
786,85.789,800,1488,1485,1566,1520,0.466063,0.0473183,-0.168528,-1.48227,0.426115,-13.11,14.0625,15.2138,213.9440625
787,85.891,766,1488,1488,1565,1520,0.486347,0.0504787,-0.170427,2.00742,0.0140286,-7.17923,12.40234375,15.2138,188.686777344
788,85.99,771,1488,1485,1565,1519,0.503836,0.0510205,-0.156234,0.314079,0.216014,-9.83599,12.646484375,15.2138,192.401083984
789,86.092,756,1488,1485,1562,1519,0.505071,0.0541587,-0.153247,0.698122,-0.0670703,-9.25772,11.9140625,15.2215,181.349902344
790,86.19,733,1488,1488,1558,1518,0.509165,0.0606301,-0.129603,0.223196,-0.729708,-9.28145,10.791015625,15.2215,164.255444336
791,86.292,759,1488,1485,1556,1520,0.508977,0.064856,-0.0713131,1.2463,-0.0862039,-8.05642,12.060546875,15.2215,183.579614258
792,86.391,742,1488,1488,1553,1520,0.516001,0.0696495,-0.0307315,0.751281,0.25354,-9.19335,11.23046875,15.2192,170.91875
793,86.493,759,1488,1485,1552,1519,0.513195,0.0801577,0.009354,-0.057879,0.38179,-11.2987,12.060546875,15.2192,183.551875
794,86.591,763,1488,1485,1547,1519,0.503686,0.0980696,0.0176049,-1.32484,2.18843,-11.6371,12.255859375,15.2192,186.524375
795,86.694,724,1488,1485,1542,1519,0.492533,0.101795,0.0531945,0.905491,0.257333,-6.14055,10.3515625,15.2215,157.566308594
796,86.792,743,1488,1485,1532,1520,0.476018,0.114039,0.0800314,-0.183114,0.683265,-8.39066,11.279296875,15.2215,171.687817383
797,86.895,756,1488,1485,1523,1519,0.453216,0.127349,0.11418,0.00160756,1.12723,-9.84678,11.9140625,15.2215,181.349902344
798,86.993,711,1488,1485,1522,1520,0.443414,0.137441,0.15458,0.264135,0.498345,-11.2674,9.716796875,15.221,147.899365234
799,87.096,754,1488,1485,1520,1520,0.42304,0.146032,0.186901,1.53611,1.39194,-7.9663,11.81640625,15.221,179.857519531
800,87.194,750,1488,1485,1512,1520,0.405693,0.150313,0.189761,1.57837,-0.452601,-9.30191,11.62109375,15.221,176.884667969
801,87.296,723,1488,1485,1492,1520,0.382096,0.157709,0.195211,0.900311,1.91161,-9.98279,10.302734375,15.2206,156.813798828
802,87.394,971,1488,1485,1473,1520,0.361669,0.151153,0.198407,0.756867,-0.881358,-10.002,22.412109375,15.2206,341.125751953
803,87.496,744,1488,1485,1465,1520,0.34326,0.153496,0.0871044,1.18237,-1.08634,-5.76911,11.328125,15.2206,172.420859375
804,87.595,635,1488,1485,1440,1520,0.319887,0.154445,0.126167,0.796047,-0.0876843,-5.49601,6.005859375,15.2422,91.5425097656
805,87.697,762,1488,1485,1417,1520,0.286657,0.151566,0.38555,0.07375,-0.242502,-7.22865,12.20703125,15.2422,186.062011719
806,87.796,833,1488,1485,1390,1518,0.249944,0.145113,0.581648,0.886653,-0.192501,-6.68891,15.673828125,15.2422,238.903623047
807,87.898,783,1488,1485,1390,1518,0.210929,0.13977,0.714195,-0.494432,0.154942,-11.3056,13.232421875,15.237,201.622412109
808,87.996,735,1488,1485,1384,1518,0.181667,0.134757,0.703308,-0.640934,-0.0733809,-11.2109,10.888671875,15.237,165.910693359
809,88.099,767,1488,1485,1384,1518,0.144432,0.120651,0.703281,-0.941423,-0.333987,-13.1692,12.451171875,15.237,189.718505859
810,88.197,755,1488,1485,1365,1518,0.116257,0.111233,0.703572,0.99278,1.37922,-10.3122,11.865234375,15.2269,180.670737305
811,88.299,755,1488,1485,1362,1518,0.0875449,0.0941885,0.708954,1.72421,1.39549,-7.80656,11.865234375,15.2269,180.670737305
812,88.398,763,1488,1485,1362,1518,0.0551112,0.0839721,0.693681,-1.48872,0.801367,-12.3285,12.255859375,15.2269,186.618745117
813,88.5,734,1488,1485,1355,1518,0.0397165,0.0723779,0.703985,1.55458,-1.01648,-8.73634,10.83984375,15.2137,164.914130859
814,88.599,755,1488,1485,1355,1518,0.022182,0.0650175,0.694531,0.654151,-0.654352,-9.47981,11.865234375,15.2137,180.514116211
815,88.701,759,1488,1485,1355,1518,0.00526479,0.0546328,0.704614,1.14525,-0.840127,-5.25935,12.060546875,15.2137,183.485541992
816,88.799,751,1488,1485,1354,1518,-0.00134602,0.0407175,0.693692,-0.0190443,-0.253458,-11.2494,11.669921875,15.2096,177.49484375
817,88.902,793,1488,1485,1346,1518,-0.00372313,0.0348405,0.703762,1.28434,1.87783,-9.76321,13.720703125,15.2096,208.68640625
818,89.0,781,1488,1485,1346,1518,-0.00843522,0.0172955,0.705244,1.29374,0.367787,-8.34694,13.134765625,15.2096,199.77453125
819,89.102,811,1488,1485,1345,1518,-0.02137,0.00737314,0.704546,1.64618,-1.74181,-6.05975,14.599609375,15.2074,222.022099609
820,89.2,779,1488,1485,1345,1518,-0.0311992,0.00716605,0.699051,0.310611,0.143288,-9.22052,13.037109375,15.2074,198.260537109
821,89.303,773,1488,1485,1342,1518,-0.0541423,-0.00995472,0.693522,0.445448,-2.99431,-8.5987,12.744140625,15.2074,193.805244141
822,89.401,743,1488,1485,1336,1518,-0.0804357,-0.0118252,0.688395,-0.0731731,0.798394,-11.7056,11.279296875,15.2028,171.476894531
823,89.504,754,1488,1485,1335,1518,-0.109272,-0.0352651,0.692201,1.30475,-1.83034,-8.32387,11.81640625,15.2028,179.642460938
824,89.602,799,1488,1485,1332,1518,-0.133674,-0.0488785,0.694072,0.77792,0.0339179,-10.2494,14.013671875,15.2028,213.047050781
825,89.705,775,1488,1485,1326,1518,-0.159671,-0.0639014,0.688878,1.45783,1.92257,-8.41844,12.841796875,15.2054,195.264658203
826,89.803,757,1488,1485,1325,1518,-0.178869,-0.0934984,0.689936,1.99985,1.28637,-8.03672,11.962890625,15.2054,181.900537109
827,89.905,778,1488,1485,1325,1518,-0.19574,-0.116586,0.693889,3.20776,-1.66171,-4.98809,12.98828125,15.2054,197.492011719
828,90.003,774,1488,1485,1324,1518,-0.209479,-0.128312,0.682312,-0.266944,0.412523,-12.4466,12.79296875,15.2068,194.540117187
829,90.106,745,1488,1485,1324,1518,-0.222671,-0.137538,0.682247,-0.334331,-2.07012,-9.99161,11.376953125,15.2068,173.007050781
830,90.204,738,1488,1485,1324,1518,-0.227444,-0.129357,0.686992,0.455631,0.770768,-10.2259,11.03515625,15.2068,167.809414062
831,90.306,735,1488,1485,1324,1518,-0.249416,-0.122095,0.681912,-0.259353,0.688498,-9.62698,10.888671875,15.2129,165.648276367
832,90.405,773,1488,1485,1324,1518,-0.261954,-0.11144,0.686436,-0.0967026,-0.456932,-10.7518,12.744140625,15.2129,193.875336914
833,90.507,788,1488,1485,1324,1518,-0.274225,-0.0981424,0.684877,0.397703,-1.04793,-8.83805,13.4765625,15.2129,205.017597656
834,90.605,771,1488,1488,1324,1518,-0.283762,-0.0828719,0.691597,0.187842,-0.349254,-9.10423,12.646484375,15.216,192.42890625
835,90.708,756,1488,1485,1324,1518,-0.284824,-0.0684854,0.689515,1.72126,-0.412323,-8.0641,11.9140625,15.216,181.284375
836,90.806,741,1488,1485,1324,1520,-0.285197,-0.0582877,0.679165,-0.546208,2.28271,-12.8744,11.181640625,15.216,170.13984375
837,90.909,758,1488,1485,1324,1520,-0.271168,-0.0620356,0.692167,2.0544,-1.99043,-7.24726,12.01171875,15.2092,182.688632813
838,91.007,763,1488,1485,1324,1518,-0.26304,-0.0469604,0.683782,-0.419274,0.552056,-12.1086,12.255859375,15.2092,186.401816406
839,91.109,799,1488,1485,1324,1518,-0.253181,-0.0413585,0.692311,-0.121721,0.0360281,-6.16478,14.013671875,15.2092,213.136738281
840,91.207,769,1488,1485,1324,1518,-0.253181,-0.0413585,0.692311,-0.121721,0.0360281,-6.16478,12.548828125,15.2099,190.866420898
841,91.31,758,1488,1485,1324,1520,-0.246718,-0.0362581,0.685345,-0.892256,0.0412938,-12.0914,12.01171875,15.2099,182.697041016
842,91.408,757,1488,1485,1325,1520,-0.246718,-0.0362581,0.685345,-0.892256,0.0412938,-12.0914,11.962890625,15.2099,181.954370117
843,91.51,806,1488,1485,1345,1517,-0.226775,-0.0297225,0.692014,1.47263,-0.998861,-10.447,14.35546875,15.2084,218.323710937
844,91.609,771,1488,1485,1400,1517,-0.226301,-0.0336532,0.691197,-1.07093,-0.933206,-10.8877,12.646484375,15.2084,192.332792969
845,91.711,967,1488,1485,1462,1518,-0.22176,-0.04222,0.696837,1.3982,0.659988,-10.0312,22.216796875,15.2084,337.881933594
846,91.81,817,1488,1485,1473,1517,-0.212805,-0.0480981,0.596393,3.35121,-2.24669,-7.85137,14.892578125,15.1825,226.106567383
847,91.912,786,1488,1485,1475,1517,-0.206589,-0.0443223,0.147237,0.565647,2.03222,-13.1223,13.37890625,15.1825,203.125244141
848,92.011,743,1488,1485,1486,1517,-0.192604,-0.0552973,0.0578358,0.340755,-1.65985,-8.53308,11.279296875,15.1825,171.247924805
849,92.113,748,1488,1485,1486,1517,-0.171189,-0.0536267,-0.00376726,-0.780562,0.701028,-13.8782,11.5234375,15.1905,175.046777344
850,92.211,743,1488,1485,1486,1517,-0.146794,-0.0672268,0.0309608,0.121897,-0.658268,-8.18206,11.279296875,15.1905,171.33815918
851,92.313,813,1488,1485,1486,1517,-0.1295,-0.0665449,0.0410671,-0.770482,1.00578,-11.4481,14.697265625,15.1905,223.258813477
852,92.412,751,1488,1485,1486,1517,-0.107805,-0.0687312,0.054705,2.10453,-0.0595003,-8.29822,11.669921875,15.186,177.219433594
853,92.514,768,1488,1485,1486,1517,-0.0949809,-0.0687283,0.049851,0.843461,-0.896054,-8.98109,12.5,15.186,189.825
854,92.616,784,1488,1495,1486,1519,-0.088458,-0.0680542,0.0738689,-0.108396,0.0850384,-8.31412,13.28125,15.186,201.6890625
855,92.715,755,1488,1537,1486,1517,-0.0882828,-0.0650441,0.0833586,0.447766,-0.0519488,-9.90818,11.865234375,15.1935,180.274438477
856,92.817,819,1486,1575,1486,1519,-0.0932089,-0.05921,0.0863153,-0.758592,1.38661,-10.7197,14.990234375,15.1935,227.754125977
857,92.916,761,1486,1574,1486,1517,-0.0624587,-0.0563846,0.146715,0.412463,0.435291,-7.47279,12.158203125,15.1935,184.72565918
858,93.019,703,1488,1533,1486,1517,0.0396189,-0.0522875,0.0797904,1.77658,0.422185,-7.26258,9.326171875,15.1858,141.625380859
859,93.117,759,1489,1488,1486,1517,0.158243,-0.0397726,0.0433232,-1.02983,1.08706,-10.8304,12.060546875,15.1858,183.149052734
860,93.219,779,1488,1486,1486,1519,0.200549,-0.0359109,0.126286,0.445266,-0.201251,-10.0889,13.037109375,15.1858,197.978935547
861,93.317,760,1488,1485,1486,1517,0.169759,-0.0270438,0.119315,-1.41855,0.404928,-11.8209,12.109375,15.1859,183.891757813
862,93.419,787,1488,1485,1486,1517,0.116011,-0.022092,0.126747,0.138901,-0.601705,-9.68949,13.427734375,15.1859,203.912231445
863,93.518,767,1488,1485,1486,1517,0.0534295,-0.0122448,0.129054,-0.584769,0.802944,-11.5236,12.451171875,15.1859,189.082250977
864,93.62,764,1488,1485,1487,1517,0.00301802,-0.0096777,0.137312,-0.124807,-0.0454677,-9.56081,12.3046875,15.1802,186.787617187
865,93.718,762,1488,1485,1540,1517,-0.0303941,-0.00727821,0.138367,1.00867,-0.962132,-8.51398,12.20703125,15.1802,185.305175781
866,93.82,744,1488,1486,1560,1517,-0.0614613,-0.00102627,0.134824,-0.227413,0.682178,-13.7723,11.328125,15.1802,171.963203125
867,93.919,780,1488,1486,1561,1517,-0.0852905,-0.00139782,0.106727,-1.47907,0.444739,-16.3032,13.0859375,15.1827,198.679863281
868,94.021,805,1488,1486,1572,1517,-0.0884925,0.00626307,-0.0602929,1.98582,0.0272778,-7.51291,14.306640625,15.1827,217.213432617
869,94.12,827,1488,1486,1572,1517,-0.098577,0.0165659,-0.123706,-0.0257524,0.990252,-13.3933,15.380859375,15.1827,233.522973633
870,94.222,799,1488,1485,1572,1517,-0.0975384,0.0179467,-0.22287,0.159665,-0.631215,-9.21309,14.013671875,15.1675,212.552368164
871,94.321,767,1488,1485,1572,1517,-0.0963797,0.0227619,-0.246482,0.656506,-2.10242,-10.2279,12.451171875,15.1675,188.853149414
872,94.423,751,1488,1485,1574,1517,-0.0951728,0.0339919,-0.240703,0.744875,0.891047,-8.91255,11.669921875,15.1675,177.003540039
873,94.521,746,1488,1485,1574,1517,-0.0948807,0.0357365,-0.248312,0.571111,1.0587,-8.78814,11.42578125,15.1649,173.270830078
874,94.624,763,1488,1485,1575,1517,-0.0916511,0.0366857,-0.281683,-0.0118776,-1.42929,-10.3228,12.255859375,15.1649,185.858881836
875,94.722,775,1488,1485,1575,1517,-0.0850575,0.0425702,-0.280628,0.114098,0.739752,-11.117,12.841796875,15.1649,194.74456543
876,94.824,847,1488,1486,1590,1517,-0.078613,0.0423652,-0.313234,-0.415884,0.390141,-10.924,16.357421875,15.1374,247.608837891
877,94.923,752,1488,1485,1590,1519,-0.0719063,0.0443181,-0.454884,-2.01053,1.20004,-14.849,11.71875,15.1374,177.39140625
878,95.025,783,1488,1485,1590,1519,-0.0573408,0.0401302,-0.506156,1.92411,-0.108237,-7.54962,13.232421875,15.1374,200.304462891
879,95.123,767,1488,1486,1591,1517,-0.0636613,0.037749,-0.514256,-0.709682,0.491498,-11.8105,12.451171875,15.1342,188.438525391
880,95.226,757,1488,1486,1591,1517,-0.0664337,0.0318699,-0.52637,-0.694716,-0.917592,-9.90281,11.962890625,15.1342,181.048779297
881,95.324,791,1488,1485,1590,1517,-0.0631777,0.0248944,-0.51621,0.211992,-0.0772256,-9.94567,13.623046875,15.1342,206.173916016
882,95.426,744,1488,1485,1591,1517,-0.0694801,0.0100236,-0.515709,0.888975,-0.500356,-8.55018,11.328125,15.1305,171.400195312
883,95.525,783,1488,1486,1591,1517,-0.0800163,-0.000942003,-0.519608,-0.616049,1.01657,-10.8844,13.232421875,15.1305,200.21315918
884,95.627,791,1488,1485,1591,1517,-0.0895516,-0.0164139,-0.525915,-0.782061,0.376827,-12.1654,13.623046875,15.1305,206.123510742
885,95.725,768,1488,1486,1591,1517,-0.0968685,-0.0296963,-0.51713,1.79764,-0.143042,-7.70388,12.5,15.1246,189.0575
886,95.828,799,1488,1486,1590,1517,-0.113435,-0.0398942,-0.518999,0.769203,0.330592,-10.7972,14.013671875,15.1246,211.951181641
887,95.926,784,1488,1486,1590,1517,-0.134051,-0.049406,-0.513582,2.28089,-0.147599,-7.95371,13.28125,15.1246,200.87359375
888,96.028,763,1487,1485,1590,1519,-0.160026,-0.0609443,-0.516075,-0.734577,-0.0613676,-12.9054,12.255859375,15.1218,185.330654297
889,96.127,774,1488,1486,1590,1517,-0.174087,-0.0662227,-0.508429,1.72156,0.420667,-7.96774,12.79296875,15.1218,193.452714844
890,96.229,803,1488,1485,1590,1517,-0.194669,-0.0692563,-0.523028,-1.69619,1.49815,-14.4577,14.208984375,15.1218,214.865419922
891,96.327,783,1488,1485,1590,1517,-0.194846,-0.0764837,-0.513158,-0.0487799,-0.9609,-8.03108,13.232421875,15.1175,200.041137695
892,96.43,810,1487,1486,1590,1517,-0.198724,-0.0780621,-0.518727,-0.164423,0.154597,-11.3861,14.55078125,15.1175,219.971435547
893,96.528,784,1487,1485,1590,1517,-0.203842,-0.0804209,-0.513765,0.0212132,0.147277,-8.52581,13.28125,15.1175,200.779296875
894,96.63,786,1488,1486,1589,1517,-0.208921,-0.0750075,-0.517166,-0.588562,1.33008,-11.7917,13.37890625,15.137,202.516503906
895,96.729,719,1488,1486,1578,1517,-0.219233,-0.0830662,-0.429096,0.631096,-0.651265,-6.72322,10.107421875,15.137,152.996044922
896,96.831,736,1488,1486,1563,1517,-0.231729,-0.0882867,-0.254304,-0.145232,0.416053,-10.7314,10.9375,15.137,165.5609375
897,96.93,855,1487,1486,1531,1517,-0.248957,-0.0882682,-0.0436742,0.51732,1.46869,-8.66146,16.748046875,15.1446,253.642470703
898,97.032,787,1488,1486,1530,1517,-0.253637,-0.0841878,-0.0109878,1.08039,0.339601,-9.37156,13.427734375,15.1446,203.357666016
899,97.13,776,1487,1486,1530,1517,-0.268237,-0.0737458,-0.0385431,-0.769562,1.33072,-11.6184,12.890625,15.1446,195.223359375
900,97.232,788,1488,1486,1535,1517,-0.267647,-0.0660248,-0.0328042,0.356442,0.613407,-9.19333,13.4765625,15.1422,204.064804688
901,97.331,819,1488,1486,1536,1517,-0.271774,-0.0350861,-0.0634292,0.0902189,-0.491601,-11.3112,14.990234375,15.1422,226.985126953
902,97.434,780,1488,1486,1536,1517,-0.271774,-0.0350861,-0.0634292,0.0902189,-0.491601,-11.3112,13.0859375,15.1422,198.149882813
903,97.532,785,1488,1485,1535,1519,-0.275667,-0.0257515,-0.0543845,0.6519,-2.09,-8.11892,13.330078125,15.1444,201.876035156
904,97.634,762,1488,1486,1535,1517,-0.272405,-0.0124859,-0.0476237,1.68037,0.68538,-7.63999,12.20703125,15.1444,184.868164062
905,97.732,807,1488,1486,1536,1517,-0.278678,-0.0118802,-0.0568595,-0.126079,0.462144,-11.039,14.404296875,15.1444,218.144433594
906,97.835,741,1487,1485,1536,1517,-0.269913,-0.011344,-0.0546127,0.869253,-0.908233,-8.43689,11.181640625,15.1436,169.330292969
907,97.933,767,1488,1485,1543,1517,-0.268853,-0.00552392,-0.0564159,-0.937285,0.891935,-10.4834,12.451171875,15.1436,188.555566406
908,98.035,767,1487,1485,1542,1519,-0.263365,-0.0093978,-0.0595664,-0.0397081,-1.45716,-10.4361,12.451171875,15.1436,188.555566406
909,98.134,806,1488,1486,1542,1519,-0.257074,-0.00403492,-0.0459669,0.941516,-0.167965,-7.74579,14.35546875,15.1437,217.394912109
910,98.236,759,1488,1496,1542,1519,-0.253721,0.00222967,-0.0439363,1.10634,-1.62381,-7.27473,12.060546875,15.1437,182.641303711
911,98.334,791,1488,1567,1542,1520,-0.237243,0.0146521,-0.0340627,2.31498,-0.349909,-6.54849,13.623046875,15.1437,206.303334961
912,98.437,800,1488,1592,1542,1517,-0.157722,0.0187978,-0.0130562,2.4744,-0.888087,-8.74081,14.0625,15.1293,212.75578125
913,98.535,741,1488,1602,1542,1520,0.0185053,0.024564,-0.0897696,-0.774247,0.49308,-8.50556,11.181640625,15.1293,169.170395508
914,98.637,753,1488,1603,1542,1519,0.272528,0.0223254,-0.146428,-1.44492,0.312849,-11.3146,11.767578125,15.1293,178.035219727
915,98.736,800,1488,1604,1542,1519,0.545388,0.0200682,-0.159752,0.00404852,-1.03309,-11.1344,14.0625,15.1291,212.75296875
916,98.838,735,1488,1600,1542,1517,0.752313,0.0158295,-0.150907,-0.867398,-0.328491,-9.31969,10.888671875,15.1291,164.735805664
917,98.937,768,1488,1593,1542,1519,0.886522,0.0164423,-0.114475,-0.273579,1.48809,-9.77115,12.5,15.1291,189.11375
918,99.039,783,1488,1586,1542,1519,0.955936,0.0119285,-0.0780031,-1.31088,0.143536,-14.009,13.232421875,15.1297,200.202573242
919,99.137,779,1488,1571,1542,1517,0.955936,0.0119285,-0.0780031,-1.31088,0.143536,-14.009,13.037109375,15.1297,197.247553711
920,99.239,787,1489,1554,1542,1517,0.965483,-0.00110051,-0.033374,1.43213,-1.43624,-7.30888,13.427734375,15.1297,203.157592773
921,99.338,774,1488,1532,1542,1520,0.894978,-0.00752523,0.0307063,0.138688,0.894331,-10.7649,12.79296875,15.123,193.468066406
922,99.44,781,1489,1523,1542,1519,0.752871,-0.0145454,0.0786297,0.434779,0.524539,-5.91847,13.134765625,15.123,198.637060547
923,99.539,740,1489,1520,1542,1519,0.580119,-0.00853445,0.0685062,-0.2218,0.0374167,-10.796,11.1328125,15.123,168.361523437
924,99.641,803,1488,1516,1542,1520,0.417397,-0.00226806,0.049863,-0.0480282,-0.478127,-10.7933,14.208984375,15.1263,214.929360352
925,99.739,774,1489,1502,1542,1519,0.268065,-0.0029553,0.0605026,-0.306947,0.0382873,-8.59563,12.79296875,15.1263,193.510283203
926,99.842,763,1489,1494,1542,1519,0.155152,-0.000601202,0.0609201,0.395197,1.01475,-8.37827,12.255859375,15.1263,185.385805664
927,99.94,755,1489,1488,1542,1519,0.0697477,-0.00760357,0.0905425,1.29973,0.473125,-6.57191,11.865234375,15.132,179.544726562
928,100.042,744,1484,1488,1542,1519,0.0143617,-0.00771923,0.123655,0.27357,0.206942,-7.68323,11.328125,15.132,171.4171875
929,100.141,785,1389,1489,1542,1519,-0.0189243,-0.0106794,0.147971,0.233566,0.373087,-10.7147,13.330078125,15.132,201.710742187
930,100.243,793,1349,1485,1542,1519,-0.0336892,0.000432764,0.158885,-0.70012,-0.262884,-12.729,13.720703125,15.1321,207.623051758
931,100.341,783,1345,1488,1542,1519,-0.0358378,0.0958776,0.187438,-0.446483,0.279563,-9.9121,13.232421875,15.1321,200.234331055
932,100.444,805,1344,1485,1542,1520,-0.0330742,0.277738,0.124273,-0.326968,0.189857,-10.7628,14.306640625,15.1321,216.489516602
933,100.542,783,1335,1488,1542,1519,-0.027173,0.522728,0.0321583,0.394204,-0.140983,-8.89351,13.232421875,15.1127,199.97762207
934,100.645,803,1308,1485,1542,1519,-0.0233395,0.824769,-0.116378,0.667443,-0.0635909,-8.16822,14.208984375,15.1127,214.736118164
935,100.743,818,1308,1488,1542,1517,-0.0146008,1.16136,-0.302922,0.772896,0.45388,-14.3433,14.94140625,15.1127,225.804990234
936,100.845,796,1308,1486,1542,1519,-0.00792133,1.4937,-0.467747,-0.311347,-1.79086,-11.4653,13.8671875,15.1074,209.497148438
937,100.944,789,1308,1487,1542,1519,-0.0025188,1.85773,-0.515656,0.675535,-0.262621,-7.17325,13.525390625,15.1074,204.333486328
938,101.046,784,1305,1489,1542,1520,0.00653663,2.16291,-0.491266,1.5312,-1.79983,-8.08691,13.28125,15.1074,200.64515625
939,101.144,811,1305,1487,1542,1520,0.0108155,2.40953,-0.45678,-1.0864,0.425678,-11.595,14.599609375,15.1016,220.477460937
940,101.247,748,1299,1488,1542,1520,0.0174295,2.59687,-0.407049,-0.871,-0.238449,-14.016,11.5234375,15.1016,174.02234375
941,101.345,749,1299,1488,1542,1520,0.0237555,2.74231,-0.383075,-0.700261,0.151088,-13.8192,11.572265625,15.1016,174.759726562
942,101.447,793,1299,1485,1542,1519,0.0332653,2.85564,-0.377608,1.28179,-2.07952,-8.39583,13.720703125,15.1083,207.296499023
943,101.545,783,1299,1485,1542,1519,0.0422832,2.95929,-0.352276,0.176934,-2.06869,-7.8936,13.232421875,15.1083,199.919399414
944,101.648,749,1299,1485,1542,1519,0.0474257,3.047,-0.302957,-0.824626,-0.0827364,-8.2495,11.572265625,15.1083,174.837260742
945,101.747,788,1300,1485,1542,1519,0.0547915,3.11668,-0.255246,1.04345,0.0617201,-9.39052,13.4765625,15.1125,203.664550781
946,101.848,801,1300,1485,1542,1519,0.0633995,3.16218,-0.220087,1.75476,-1.68097,-5.01578,14.111328125,15.1125,213.257446289
947,101.947,778,1300,1488,1542,1519,0.0638313,3.20153,-0.189653,-0.721245,1.17096,-10.2737,12.98828125,15.1125,196.285400391
948,102.049,783,1300,1488,1542,1519,0.0661542,3.2248,-0.167076,0.378821,1.87356,-8.85623,13.232421875,15.1018,199.833388672
949,102.148,775,1299,1488,1542,1520,0.0671729,3.23833,-0.156103,-2.12975,-1.10015,-15.9968,12.841796875,15.1018,193.934248047
950,102.25,781,1300,1488,1542,1519,0.0815812,3.24384,-0.126076,0.649767,-1.97838,-8.78788,13.134765625,15.1018,198.358603516
951,102.349,783,1300,1488,1542,1519,0.0764755,3.25694,-0.107977,0.584601,-2.97774,-6.97254,13.232421875,15.0966,199.764580078
952,102.45,763,1299,1488,1542,1520,0.067217,3.27075,-0.088975,-3.45085,0.925023,-10.8605,12.255859375,15.0966,185.021806641
953,102.549,751,1299,1488,1542,1520,0.0705924,3.26805,-0.0706699,0.346082,-0.108598,-6.51894,11.669921875,15.0966,176.176142578
954,102.651,787,1299,1488,1542,1518,0.0677743,3.27109,-0.0686461,0.887409,-0.947275,-6.4503,13.427734375,15.0877,202.59362793
955,102.75,762,1302,1488,1542,1519,0.0611279,3.27944,-0.0751654,-0.852281,-1.10313,-10.7648,12.20703125,15.0877,184.176025391
956,102.852,761,1306,1485,1542,1519,0.0623322,3.27114,-0.0271169,-1.01037,-1.53511,-13.2442,12.158203125,15.0877,183.439321289
957,102.95,769,1318,1485,1542,1519,0.0569641,3.25023,0.053908,1.47923,-0.283258,-6.89306,12.548828125,15.0803,189.240092773
958,103.053,791,1369,1486,1542,1520,0.0524303,3.15645,0.320825,0.786344,-1.89803,-8.40013,13.623046875,15.0803,205.439633789
