timestamp,vel_x,vel_y,vel_z,acc_x,acc_y,acc_z,roll,pitch,yaw,rc0,rc1,rc2,rc3,vol,cur_raw,cur,power
63.1137108803,0.0144693451,-0.0174737442,-0.144664526,-0.4502896369,-0.7843672037,10.8330202103,0,0,0,1488,1488,1662,1518,15.8520002365,894,18.65234375,295.676957536
63.2120409012,0.0247928556,0.011923681,0.0484574474,-0.441838026,-0.0110836783,15.0892314911,0,0,0,1488,1488,1675,1518,15.8269996643,958,21.77734375,344.670012221
63.3144650459,0.0289616901,0.0349756889,0.4626805186,-0.0527921394,0.0731238797,14.2151145935,0,0,0,1488,1488,1677,1518,15.8269996643,915,19.677734375,311.439495347
63.4127590656,0.0123887891,0.0912096128,0.9015114307,-0.335062325,-0.9317074418,16.1452693939,0,0,0,1488,1488,1677,1518,15.7489995956,971,22.412109375,352.968301483
63.5109279156,-0.0259121377,0.1476047337,1.3676406145,1.3915795088,-0.123369135,12.4142990112,0,0,0,1488,1489,1677,1518,15.7489995956,976,22.65625,356.813272088
63.6132559776,-0.0661794022,0.1576194316,1.6701579094,0.1024124324,-2.26603508,11.297545433,0,0,0,1488,1488,1677,1518,15.6700000763,803,14.208984375,222.65478624
63.711566925,-0.110167779,0.1389555484,1.7095860243,0.4044432342,0.926343143,8.5533666611,0,0,0,1488,1488,1676,1518,15.6700000763,840,16.015625,250.964844972
63.8141829967,-0.1379591078,0.0964085013,1.6941221952,-0.8635931611,-0.9347561002,11.5814008713,0,0,0,1488,1488,1677,1518,15.6260004044,783,13.232421875,206.76982957
63.9132828712,-0.1550052017,0.0566888675,1.7116427422,-0.1368319839,-1.6680668593,9.8150672913,0,0,0,1488,1488,1676,1518,15.6260004044,723,10.302734375,160.99053151
64.0152199268,-0.1641381681,0.0062318495,1.7150645256,1.1918135881,-1.7235088348,7.9246816635,0,0,0,1488,1489,1677,1516,15.5939998627,798,13.96484375,217.76777152
64.1135489941,-0.1663496941,-0.0250067711,1.719778657,0.863209486,-0.7869361639,10.9539022446,0,0,0,1488,1488,1676,1518,15.5939998627,807,14.404296875,224.620603491
64.2157330513,-0.1615950018,-0.0437221378,1.7226413488,0.7081807852,-0.8086628318,10.343752861,0,0,0,1488,1488,1675,1518,15.5719995499,813,14.697265625,228.865813697
64.3136608601,-0.1489384472,-0.0564821735,1.6203683615,-0.2949149311,-1.0644454956,10.2930545807,0,0,0,1488,1489,1658,1516,15.5719995499,725,10.400390625,161.954878131
64.4163520336,-0.1256576031,-0.0679213479,1.4179172516,0.2913730443,-0.8471362591,7.9927806854,0,0,0,1488,1489,1642,1518,15.5579996109,671,7.763671875,120.78720401
64.5148289204,-0.1015639007,-0.0706145093,1.2544353008,1.9012137651,-1.1568330526,6.8496317864,0,0,0,1488,1488,1640,1518,15.5579996109,729,10.595703125,164.847945096
64.6167640686,-0.0537429005,-0.0848573595,1.1395890713,0.794478178,-0.533218205,6.9253325462,0,0,0,1488,1489,1631,1515,15.5640001297,814,14.74609375,229.508205038
64.7154219151,-0.0080528092,-0.1052864715,1.0945426226,-0.9018071294,0.052576825,12.6369810104,0,0,0,1488,1489,1631,1517,15.5640001297,823,15.185546875,236.347853532
64.8134858608,0.0112007074,-0.1339637041,1.1052381992,-0.1579846889,0.3370589912,11.0155286789,0,0,0,1488,1488,1630,1515,15.5640001297,752,11.71875,182.39062652
64.9157700539,0.0153561309,-0.1384447962,1.0795241594,-0.6886453629,-0.1085508242,9.4786262512,0,0,0,1488,1488,1629,1515,15.5640001297,753,11.767578125,183.150587464
65.0142569542,0.0029347881,-0.1292474568,1.0394157171,-0.4137562513,-1.2185902596,9.9902410507,0,0,0,1488,1488,1603,1516,15.5640001297,623,5.419921875,84.3556647655
65.1166689396,0.0029312242,-0.1187357605,0.6938672662,-0.334509939,-0.0782722905,5.5139026642,0,0,0,1488,1488,1580,1516,15.5640001297,690,8.69140625,135.273048002
65.2151038647,7.34576024114E-05,-0.106984891,0.4365986288,0.0382989533,-0.6977080703,6.2426495552,0,0,0,1488,1488,1560,1516,15.5279998779,662,7.32421875,113.730467856
65.3170650005,0.0044973549,-0.0745836422,-0.0196762122,1.2841308117,-0.8108004928,8.2733135223,0,0,0,1488,1488,1516,1516,15.5279998779,806,14.35546875,222.911716997
65.4162299633,0.0064697317,-0.0521463156,-0.123190783,1.6097539663,-1.7402206659,6.4373984337,0,0,0,1488,1489,1512,1515,15.5279998779,812,14.6484375,227.460935711
65.5182659626,0.0042891717,-0.0284138862,-0.1297226101,0.8252947927,-0.0275950301,10.8618574142,0,0,0,1488,1489,1511,1515,15.5279998779,771,12.646484375,196.374607831
65.6167280674,-0.0040053935,-0.0047086109,-0.1422744542,0.824490726,-0.7101737261,8.5424928665,0,0,0,1488,1488,1509,1516,15.5279998779,791,13.623046875,211.538670212
65.7186889648,-0.0197987072,0.006873141,-0.1452527791,0.551676631,0.3484038413,9.0232553482,0,0,0,1488,1488,1510,1516,15.5089998245,756,11.9140625,184.775193222
65.816824913,-0.0223471411,0.0127217742,-0.1420635134,-0.2477884293,-0.660386622,12.0742502213,0,0,0,1488,1488,1510,1517,15.5089998245,799,14.013671875,217.33803465
65.919410944,-0.033764381,-0.0043806178,-0.1658963114,-0.5934103727,-1.4260988236,10.7064390182,0,0,0,1488,1488,1510,1517,15.4910001755,751,11.669921875,180.778761814
66.018116951,-0.0455761179,-0.0134917423,-0.158778578,1.9346915484,-0.2631159127,6.9513702393,0,0,0,1488,1488,1510,1517,15.4759998322,757,11.962890625,185.137693305
66.1159329414,-0.0526118763,-0.0317431539,-0.1635549814,0.0310717151,-0.9986116886,8.6135292053,0,0,0,1488,1488,1509,1515,15.4759998322,799,14.013671875,216.875583586
66.2183699608,-0.0628083423,-0.0405396856,-0.1665516943,-0.1851111054,0.5935223699,12.8395671844,0,0,0,1488,1488,1507,1518,15.4759998322,792,13.671875,211.585935206
66.3166339397,-0.059020292,-0.0602685697,-0.1646423191,0.906496346,-1.3043398857,8.7061281204,0,0,0,1488,1489,1497,1516,15.4600000381,773,12.744140625,197.024414548
66.4190039635,-0.0519053973,-0.0734298229,-0.1422899216,-2.0219419003,-0.1755364686,11.0774774551,0,0,0,1488,1488,1479,1518,15.4600000381,784,13.28125,205.328125506
66.5173408985,-0.0418826453,-0.0711348578,-0.1151584461,3.0943703651,-0.2740271389,7.7236447334,0,0,0,1488,1488,1479,1518,15.4479999542,763,12.255859375,189.328515064
66.6198790073,-0.0333371572,-0.0850607529,-0.1117196158,1.0915375948,-1.0015161037,12.2318658829,0,0,0,1488,1488,1480,1518,15.4479999542,799,14.013671875,216.483202483
66.7180130482,-0.024102129,-0.0819705278,-0.1137251183,1.9571042061,-0.7161929011,8.5280656815,0,0,0,1488,1488,1480,1518,15.4420003891,763,12.255859375,189.254985238
66.8202979565,-0.0086822398,-0.0867332965,-0.1232631505,0.4205539227,0.5291057825,10.4771547318,0,0,0,1488,1489,1479,1516,15.4420003891,764,12.3046875,190.008989163
66.9190859795,0.0157830976,-0.0841431096,-0.1264750957,0.6263926625,0.5270707011,7.6678009033,0,0,0,1488,1489,1479,1516,15.4379997253,803,14.208984375,219.358296878
67.0210340023,0.0265584774,-0.0796658248,-0.1415720731,1.1243356466,1.0692259073,9.1330785751,0,0,0,1488,1488,1478,1518,15.4379997253,786,13.37890625,206.543551012
67.1197810173,0.0360906608,-0.0662774816,-0.1520116329,1.5862647295,-1.3240487576,8.3059272766,0,0,0,1488,1488,1474,1518,15.4289999008,771,12.646484375,195.122606167
67.2177119255,0.0360642895,-0.0463829376,-0.1639918089,1.9319342375,-0.529818356,7.7486963272,0,0,0,1488,1488,1475,1518,15.4289999008,783,13.232421875,204.163035797
67.3200750351,0.0329011045,-0.0266323201,-0.1781955957,2.146976471,-0.591350019,4.6637783051,0,0,0,1488,1488,1475,1516,15.4180002213,782,13.18359375,203.264651355
67.4185550213,0.0290007666,-0.0050108284,-0.183822155,1.5033090115,-0.2817850411,7.7343764305,0,0,0,1488,1488,1475,1515,15.4180002213,755,11.865234375,182.93818622
67.5208249092,0.0188393556,0.0171639472,-0.1886243224,0.6844290495,0.16397129,9.0820360184,0,0,0,1488,1489,1475,1517,15.4090003967,799,14.013671875,215.936675481
67.618970871,0.0065507777,0.0360121131,-0.1860656738,0.3725543618,0.6418168545,9.8157567978,0,0,0,1488,1488,1475,1516,15.4090003967,801,14.111328125,217.441460676
67.7215280533,-0.0113945734,0.0483741499,-0.1817502677,-0.8845010996,-0.0441505983,12.1892061234,0,0,0,1488,1488,1475,1518,15.4040002823,793,13.720703125,211.353714811
67.8203999996,-0.0168194957,0.0571057349,-0.1821506321,0.5325920582,-0.0717926025,11.0024232864,0,0,0,1488,1488,1471,1547,15.4040002823,807,14.404296875,221.883793129
67.9223818779,-0.0236379057,0.0612027757,-0.1852306724,0.3752499521,-0.4737996161,11.8547515869,0,0,0,1488,1489,1471,1598,15.388999939,789,13.525390625,208.142235503
68.0208909512,-0.0242087916,0.0545737669,-0.1844573766,-0.8410110474,-0.5110644102,10.1452875137,0,0,0,1488,1488,1450,1634,15.388999939,742,11.23046875,172.825682909
68.1228449345,-0.0067345966,0.0261054505,-0.2916254699,0.8093906045,-0.7898668647,8.8422241211,0,0,0,1488,1488,1449,1663,15.376999855,794,13.76953125,211.734080035
68.2214260101,-0.0035619393,0.0148793347,-0.2831243575,-1.1932754517,0.3412222862,11.2292728424,0,0,0,1488,1488,1448,1672,15.376999855,787,13.427734375,206.478269537
68.3237099648,-0.0025573017,0.0074625653,-0.2815815806,-0.1304767281,0.0885121971,8.4829416275,0,0,0,1488,1488,1449,1729,15.373000145,791,13.623046875,209.427101585
68.4221439362,0.0062886621,0.0109186769,-0.2748904824,-0.0964407697,0.6315582991,9.5238351822,0,0,0,1488,1488,1449,1725,15.373000145,769,12.548828125,192.913136585
68.5205779076,0.0184033196,0.0069342325,-0.2785969973,0.5462592244,-0.7920288444,7.3992681503,0,0,0,1488,1489,1450,1729,15.373000145,775,12.841796875,197.416945221
68.6225619316,0.0070969206,0.0035854236,-0.2635144293,0.1536845416,0.2088737637,10.8702068329,0,0,0,1488,1489,1439,1561,15.3599996567,722,10.25390625,157.49999648
68.7209758759,-0.016491482,-0.0088423155,-0.3222506046,1.6569901705,-0.4196456969,3.4389834404,0,0,0,1488,1488,1433,1535,15.3599996567,815,14.794921875,227.249994921
68.82315588,-0.0528378114,-0.0240991861,-0.4155397415,0.5512086749,1.0729906559,11.998374939,0,0,0,1488,1489,1455,1518,15.357000351,886,18.26171875,280.445221254
68.9217200279,-0.0884527341,-0.0411543436,-0.2253381908,0.2371557057,1.0535126925,10.3281517029,0,0,0,1488,1489,1455,1516,15.357000351,744,11.328125,173.966019601
69.0244300365,-0.1278852224,-0.0699569285,-0.2045478076,1.1003981829,0.2359135151,6.1662797928,0,0,0,1488,1489,1444,1432,15.3420000076,744,11.328125,173.796093836
69.1221680641,-0.1524847746,-0.0892967209,-0.2937871218,1.0631810427,2.3248546124,5.5186629295,0,0,0,1488,1488,1423,1336,15.3420000076,731,10.693359375,164.057519613
69.2246389389,-0.1761025637,-0.1209819615,-0.486887008,-0.3903469741,2.1673500538,9.7756080627,0,0,0,1488,1488,1411,1300,15.3520002365,688,8.59375,131.931252032
69.3229298592,-0.1718050838,-0.125029102,-0.6486163735,0.7244055271,1.019900918,7.3539261818,0,0,0,1488,1489,1409,1297,15.3520002365,821,15.087890625,231.629300443
69.4251639843,-0.1850927919,-0.1249367222,-0.691222012,1.8120324612,4.3277511597,5.8927559853,0,0,0,1488,1488,1408,1289,15.3649997711,804,14.2578125,219.071285799
69.523704052,-0.1748099178,-0.1091830432,-0.7078186274,-0.239217788,-1.6264629364,9.1391649246,0,0,0,1488,1489,1409,1330,15.3649997711,741,11.181640625,171.805905644
69.6260409355,-0.1636176407,-0.0878620595,-0.6901553273,-1.321827054,-0.2903676629,14.6538143158,0,0,0,1488,1488,1458,1516,15.3599996567,971,22.412109375,344.249992306
69.7247240543,-0.1100210547,-0.0995101333,-0.2811998427,-1.6168402433,-3.3073441982,12.3018751144,0,0,0,1488,1488,1458,1515,15.3599996567,807,14.404296875,221.249995055
69.8227410316,-0.0796371698,-0.1394105703,-0.170890376,-0.1009411365,-0.6774234176,12.042096138,0,0,0,1488,1488,1458,1515,15.3100004196,768,12.5,191.375005245
69.9249620438,-0.0442219898,-0.1690856814,-0.1497737318,1.4154638052,-1.4808299542,10.9371786118,0,0,0,1488,1488,1458,1517,15.3100004196,787,13.427734375,205.578618916
70.0235788822,-0.0177242104,-0.2103322893,-0.1560386121,0.3361583054,-1.0289669037,11.6540441513,0,0,0,1488,1488,1458,1517,15.3100004196,802,14.16015625,216.791998129
70.1259028912,-0.0003859019,-0.2386190295,-0.1499969959,-0.9897155762,0.8167837858,9.3763828278,0,0,0,1488,1488,1458,1516,15.3100004196,795,13.818359375,211.559087829
70.2241508961,0.007956801,-0.273986727,-0.1535789222,0.2772824764,0.4090141654,7.7663793564,0,0,0,1488,1488,1458,1516,15.3140001297,792,13.671875,209.371095523
70.3265869617,-0.0034197099,-0.289455235,-0.1548371464,0.1168591827,-0.3133786023,12.003118515,0,0,0,1488,1489,1458,1517,15.3140001297,789,13.525390625,207.127833785
70.4248158932,-0.0286906213,-0.2903215289,-0.156458348,0.2902446091,-0.0846589059,8.5133981705,0,0,0,1488,1488,1458,1521,15.3090000153,822,15.13671875,231.728027575
70.5270090103,-0.0607102625,-0.2736803591,-0.1519952863,-0.3203866184,0.1502963007,9.8130197525,0,0,0,1488,1489,1458,1561,15.3090000153,783,13.232421875,202.575146687
70.6254849434,-0.0780753493,-0.2595518827,-0.1434510499,1.3961378336,-1.5126651526,11.9649209976,0,0,0,1488,1489,1459,1520,15.3059997559,775,12.841796875,196.556539834
70.7277190685,-0.0881741866,-0.2511081398,-0.1405598074,2.4159147739,-1.0393394232,8.3396520615,0,0,0,1488,1488,1458,1520,15.3059997559,761,12.158203125,186.093454063
70.8265309334,-0.1105204895,-0.2179437876,-0.1442697644,1.9457198381,-0.795430243,8.129734993,0,0,0,1488,1489,1459,1520,15.3020000458,767,12.451171875,190.527832602
70.9284179211,-0.1295255423,-0.1919987053,-0.1328061074,0.0197741911,-1.1084849834,9.9460020065,0,0,0,1488,1488,1458,1520,15.3020000458,793,13.720703125,209.954199847
71.026747942,-0.1402421445,-0.1523115635,-0.1486045271,0.6950647831,-0.4933665693,10.1318893433,0,0,0,1488,1489,1459,1520,15.3020000458,767,12.451171875,190.527832602
71.1254990101,-0.1475787759,-0.1276788563,-0.1332229525,1.1194903851,-1.5984067917,8.248626709,0,0,0,1488,1489,1459,1520,15.2989997864,750,11.62109375,177.791110799
71.2280209064,-0.1580579132,-0.0798259228,-0.1400234848,0.819509685,-1.1188553572,9.1773872376,0,0,0,1560,1484,1458,1520,15.2989997864,765,12.353515625,188.996432908
71.3262269497,-0.1530947238,-0.0534845665,-0.1654958874,-0.5711061358,-0.0399298444,10.9828109741,0,0,0,1641,1483,1459,1520,15.2969999313,856,16.796875,256.941795721
71.4284510612,-0.063359946,-0.0478178672,-0.1431848854,0.2483783215,0.3630124331,11.0513401031,0,0,0,1717,1485,1459,1520,15.2969999313,863,17.138671875,262.170262494
71.5270678997,0.2144425958,-0.0697718039,-0.0908511281,0.2915583551,-0.7512033582,9.7127733231,0,0,0,1704,1485,1458,1520,15.2869997025,848,16.40625,250.802338869
71.6287739277,0.5539180636,-0.1039251164,-0.1115464419,2.132080555,-1.1365537643,8.2675561905,0,0,0,1542,1490,1458,1522,15.2869997025,792,13.671875,209.001949058
71.7275848389,0.7776992917,-0.1157176495,-0.1363869607,0.5561465621,-1.2655271292,10.9981470108,0,0,0,1498,1488,1459,1520,15.2810001373,799,14.013671875,214.142921846
71.8297789097,1.0160787106,-0.1344399303,-0.1793613583,0.4061628282,-1.1846507788,11.2718687057,0,0,0,1487,1490,1458,1520,15.2810001373,795,13.818359375,211.158351507
71.9278159142,0.9953048825,-0.1389600784,-0.1608993113,1.973222971,-1.6242189407,10.2707223892,0,0,0,1486,1488,1458,1522,15.2749996185,815,14.794921875,225.992425996
72.0303149223,0.8019242883,-0.1423477679,-0.1553858221,1.0846011639,-0.4562732875,9.4725666046,0,0,0,1487,1488,1458,1522,15.2749996185,800,14.0625,214.804682135
72.1287388802,0.5482580066,-0.1435370445,-0.1646873206,1.9714161158,-1.6962860823,11.1116199493,0,0,0,1487,1488,1458,1520,15.265999794,757,11.962890625,182.625485817
72.2309880257,0.2933327258,-0.1445475817,-0.1589593142,1.2860372067,-1.1581158638,10.5542907715,0,0,0,1493,1488,1458,1520,15.265999794,771,12.646484375,193.061227864
72.3293149471,0.0614154264,-0.1373335719,-0.157822445,0.0418663844,-1.0061635971,8.9642295837,0,0,0,1499,1488,1458,1520,15.2569999695,831,15.576171875,237.645653822
72.4276618958,-0.1013246104,-0.1276749671,-0.1715643853,0.0503225327,0.750903368,10.4481115341,0,0,0,1578,1489,1458,1522,15.2569999695,799,14.013671875,213.806591369
72.5300278664,-0.1472083777,-0.1291536838,-0.156448707,0.7138388157,-0.4294697344,11.0526847839,0,0,0,1681,1483,1458,1520,15.2489995956,805,14.306640625,218.161957105
72.6286120415,-0.0775207207,-0.1336820275,-0.1367494017,3.3205502033,-0.8877973557,11.2139215469,0,0,0,1711,1481,1459,1520,15.2489995956,813,14.697265625,224.118597572
72.7309019566,0.2039411962,-0.1398765743,-0.0891053379,-0.4318089187,-0.6427961588,12.0183525085,0,0,0,1725,1481,1459,1520,15.2329998016,840,16.015625,243.966012447
72.8294398785,0.597027123,-0.1543187499,-0.0901177526,0.9781123996,-3.6319417954,9.1486272812,0,0,0,1729,1481,1459,1520,15.2329998016,884,18.1640625,276.693160459
72.9318759441,1.0585900545,-0.1813683212,-0.1036375538,0.0441739373,-0.3474574387,11.0798406601,0,0,0,1730,1483,1458,1520,15.2170000076,904,19.140625,291.26289077
73.0298519135,1.5679318905,-0.2211255133,-0.115576148,0.0741291493,1.2580128908,9.4085245132,0,0,0,1729,1481,1458,1520,15.2170000076,901,18.994140625,289.033838035
73.1323769093,2.0741140842,-0.2732735574,-0.1201369613,-0.2788179815,-1.2020101547,10.6652555466,0,0,0,1712,1483,1458,1520,15.2030000687,857,16.845703125,256.105225767
73.2310419083,2.4658789635,-0.3149621487,-0.1607227921,2.6438012123,0.0119027328,11.7804632187,0,0,0,1705,1483,1458,1520,15.2030000687,744,11.328125,172.221485153
73.3327100277,2.7529335022,-0.338204205,-0.1500656456,0.22029531,-2.4651217461,12.8166694641,0,0,0,1695,1484,1458,1520,15.2060003281,776,12.890625,196.014847979
73.431180954,2.945322752,-0.350494206,-0.1119291782,0.158698976,-1.7742871046,14.0672998428,0,0,0,1692,1484,1458,1520,15.2060003281,765,12.353515625,187.847562647
73.5295979977,3.0477199554,-0.3538970053,-0.1175575927,-0.314140588,-0.1181226671,15.289484024,0,0,0,1690,1484,1458,1520,15.2069997787,803,14.208984375,216.076022246
73.6322238445,3.1200275421,-0.3516741693,-0.1044606417,1.6951211691,-2.5794022083,6.6686849594,0,0,0,1690,1484,1458,1520,15.2069997787,773,12.744140625,193.800143664
73.7301988602,3.1777262688,-0.3538951278,-0.1169842109,-0.4722597897,-1.7842558622,11.0275316238,0,0,0,1690,1484,1458,1520,15.2139997482,838,15.91796875,242.175972554
73.8326809406,3.2244472504,-0.3532037735,-0.1115707904,1.6769140959,0.2950382233,12.6496810913,0,0,0,1688,1484,1458,1520,15.2139997482,788,13.4765625,205.032418482
73.9308788776,3.2463443279,-0.3496747017,-0.1180674806,-2.0613172054,-0.2004911602,11.7349996567,0,0,0,1687,1485,1459,1520,15.2279996872,800,14.0625,214.143745601
74.0332870483,3.263102293,-0.3681818843,-0.1042283997,-1.8277214766,-0.85220927,11.5420131683,0,0,0,1684,1484,1458,1520,15.2279996872,788,13.4765625,205.221089535
74.1314609051,3.2614204884,-0.3889734149,-0.1232200712,0.5204838514,0.2055875957,9.9026956558,0,0,0,1682,1484,1458,1520,15.234000206,807,14.404296875,219.435061561
74.2343890667,3.2518160343,-0.3927484453,-0.1227490455,1.2296923399,0.0549872555,7.0982441902,0,0,0,1674,1486,1458,1520,15.234000206,755,11.865234375,180.754982913
74.3324279785,3.206079483,-0.3923155069,-0.1162833124,2.019828558,-3.2970721722,10.990737915,0,0,0,1634,1489,1458,1520,15.234000206,753,11.767578125,179.26728758
74.4346649647,3.0850007534,-0.38059026,-0.1237561926,0.2265902162,-0.6527663469,7.1350955963,0,0,0,1567,1489,1458,1520,15.234000206,796,13.8671875,211.252737232
74.5329380035,2.8273389339,-0.3609136641,-0.1119535789,1.2312713862,-0.6763769388,8.7920331955,0,0,0,1514,1490,1458,1520,15.2349996567,829,15.478515625,235.815180233
74.6352200508,2.381746769,-0.3208525181,-0.0660813749,1.3177475929,0.5319905877,11.6736574173,0,0,0,1488,1490,1458,1520,15.2349996567,809,14.501953125,220.937250881
74.7337338924,2.2378213406,-0.3107258677,-0.0723969936,0.0590712391,0.2372368276,13.4607524872,0,0,0,1488,1490,1458,1520,15.2250003815,831,15.576171875,237.147222739
74.8319630623,1.6024047136,-0.2470593452,-0.1436330974,-1.7978236675,-0.1762395799,12.0762672424,0,0,0,1486,1488,1458,1520,15.2250003815,810,14.55078125,221.535650082
74.9344649315,1.2817883492,-0.2157630473,-0.1884795576,1.073782444,-2.4359452725,7.7345256805,0,0,0,1488,1489,1459,1520,15.2239999771,852,16.6015625,252.74218712
75.0326879025,0.9623043537,-0.2001692653,-0.1738895625,-0.0216403902,-1.5976679325,8.7226953507,0,0,0,1486,1488,1458,1520,15.2239999771,847,16.357421875,249.02539025
75.135062933,0.8080550432,-0.1923892349,-0.1581635177,-0.1837174445,0.5565606356,11.9159650803,0,0,0,1484,1488,1458,1520,15.2209997177,807,14.404296875,219.247798668
75.2339189053,0.6278193593,-0.1718409806,-0.1543797404,-0.8481897712,-0.616913259,12.5496044159,0,0,0,1482,1488,1458,1520,15.2209997177,790,13.57421875,206.613179762
75.3356089592,0.4753150046,-0.142618686,-0.1462406069,0.0295577422,-1.6761878729,12.6118822098,0,0,0,1425,1491,1458,1520,15.2189998627,761,12.158203125,185.03569169
75.434748888,0.3262241483,-0.1173247993,-0.1247064173,1.2828984261,-0.557228446,9.6658773422,0,0,0,1343,1492,1459,1520,15.2189998627,821,15.087890625,229.62260535
75.536689043,0.1182672903,-0.0882231966,-0.117557019,-0.6112606525,-1.0085186958,12.233540535,0,0,0,1266,1491,1458,1522,15.218000412,799,14.013671875,213.260064367
75.6347270012,-0.2232395858,-0.0415418074,-0.1058062315,-0.5668371916,-0.9076400399,12.5281429291,0,0,0,1243,1491,1459,1520,15.218000412,851,16.552734375,251.899518538
75.7374658585,-0.6789384484,0.0139552867,-0.1013808697,-0.3169193566,0.3966341019,13.0324993134,0,0,0,1242,1490,1459,1520,15.218000412,848,16.40625,249.670319259
75.8354580402,-1.2010874748,0.0593800247,-0.1024106815,-0.0074591022,-0.3680292964,12.3228416443,0,0,0,1232,1490,1459,1520,15.2080001831,847,16.357421875,248.76367487
75.9377260208,-1.7177450657,0.0963920951,-0.0947329476,-0.3541726172,0.2012343705,11.3084373474,0,0,0,1231,1489,1458,1520,15.1909999847,815,14.794921875,224.749657977
76.0367670059,-2.2346374989,0.1380462646,-0.1010874063,1.1375635862,-0.1480174363,11.3982686996,0,0,0,1231,1488,1458,1520,15.1909999847,873,17.626953125,267.771044652
76.1348838806,-2.7398424149,0.1768222004,-0.1213334799,1.445020318,0.5027424097,9.7516393662,0,0,0,1232,1488,1458,1520,15.1770000458,831,15.576171875,236.39956126
76.2370200157,-3.1914849281,0.2136205882,-0.1137240306,-0.0618055984,-0.4114429355,9.4714622498,0,0,0,1232,1488,1458,1520,15.1770000458,797,13.916015625,211.203369778
76.3352169991,-3.5674829483,0.2391323596,-0.1234903485,0.2634725869,0.4434294701,9.254858017,0,0,0,1232,1489,1459,1520,15.1770000458,811,14.599609375,221.578272153
76.4378290176,-3.8496215344,0.2706293762,-0.1189085543,-0.1322977543,-0.1127997264,11.7581377029,0,0,0,1234,1488,1459,1520,15.1730003357,826,15.33203125,232.632915303
76.5365478992,-4.0756802559,0.2947862744,-0.1289301962,0.5246251822,0.0932491124,11.5845537186,0,0,0,1238,1488,1458,1522,15.1730003357,816,14.84375,225.224223733
76.6384248734,-4.2259583473,0.3196519315,-0.1192661449,1.0958390236,1.0451477766,8.4479732513,0,0,0,1238,1489,1458,1520,15.1730003357,761,12.158203125,184.476420097
76.7375159264,-4.2985568047,0.3347336352,-0.1358536929,0.000960441,-0.5761711597,11.1964645386,0,0,0,1238,1485,1458,1520,15.1730003357,787,13.427734375,203.73901818
76.8392100334,-4.3558697701,0.346845299,-0.1234420687,0.5654108524,-0.238787666,9.9259004593,0,0,0,1229,1485,1458,1520,15.1750001907,771,12.646484375,191.910402802
76.9371540546,-4.4129753113,0.3391808867,-0.1275717616,0.7321590781,0.6637108922,10.4981603622,0,0,0,1229,1485,1458,1522,15.1750001907,768,12.5,189.687502384
77.0395538807,-4.4879097939,0.3266757727,-0.1257479936,0.1737325788,-0.020320151,9.5460548401,0,0,0,1230,1485,1458,1520,15.1780004501,771,12.646484375,191.948345536
77.1385350227,-4.5395622253,0.3135926723,-0.1379971355,2.132723093,0.7297284603,10.3116140366,0,0,0,1250,1485,1458,1520,15.1780004501,783,13.232421875,200.841705175
77.2407090664,-4.5493879318,0.3098580241,-0.1151876301,-0.2792785466,-0.0328373723,8.1701641083,0,0,0,1267,1486,1459,1520,15.1800003052,802,14.16015625,214.951176197
77.3393929005,-4.4918475151,0.3021269739,-0.1248870566,-0.3566242456,1.0129330158,11.98387146,0,0,0,1291,1484,1459,1520,15.1870002747,831,15.576171875,236.555326544
77.4370138645,-4.3497266769,0.2834839821,-0.1228747964,-0.7048299909,0.0912574232,10.8069171906,0,0,0,1307,1486,1458,1520,15.1870002747,819,14.990234375,227.656693571
77.539427042,-4.0879907608,0.2607311308,-0.1173554137,-0.3501623273,-0.1791221946,12.350528717,0,0,0,1415,1484,1458,1520,15.1870002747,827,15.380859375,233.589115553
77.6377389431,-3.6701231003,0.2269919068,-0.1033976078,1.1188195944,0.1815715879,11.9131259918,0,0,0,1459,1484,1459,1520,15.1870002747,839,15.966796875,242.487748527
77.7400529385,-3.1964893341,0.1826358289,-0.06657096,0.8684949875,1.2200876474,9.4936199188,0,0,0,1488,1486,1459,1520,15.1750001907,863,17.138671875,260.079348971
77.8387639523,-2.5513000488,0.1295658499,-0.0671735033,0.93584764,-1.4809960127,10.3608160019,0,0,0,1489,1488,1459,1520,15.1750001907,852,16.6015625,251.928714103
77.9408988953,-2.016646862,0.0812257975,-0.1128851697,1.1061580181,-0.7437559962,9.0768117905,0,0,0,1489,1489,1474,1520,15.1619997025,971,22.412109375,339.812395676
78.0395050049,-1.5034407377,0.0380119942,-0.0439588614,0.0595504232,-0.1005589738,13.834197998,0,0,0,1490,1490,1498,1520,15.1619997025,829,15.478515625,234.685249301
78.1412730217,-1.1123679876,-0.0008958748,0.0259779375,0.706426084,0.0246535968,11.4358310699,0,0,0,1489,1490,1537,1520,15.1619997025,785,13.330078125,202.110640566
78.240087986,-0.8460137844,-0.0234562363,0.0697407648,1.3290243149,-0.718599081,6.1984710693,0,0,0,1490,1490,1558,1520,15.1590003967,805,14.306640625,216.87437091
78.3420519829,-0.6567992568,-0.0314433388,0.1122192144,1.9208750725,1.1223634481,11.2709665298,0,0,0,1490,1490,1575,1520,15.1590003967,971,22.412109375,339.745174907
78.4409630299,-0.5094333887,-0.0308520291,0.4563978612,1.0769743919,-0.7208216786,13.6186294556,0,0,0,1490,1490,1598,1520,15.1579999924,827,15.380859375,233.143066289
78.5429348946,-0.3913086653,-0.0432929918,0.7484137416,0.5058165789,-1.4712877274,12.1638250351,0,0,0,1490,1490,1611,1520,15.1579999924,854,16.69921875,253.126757686
78.641160965,-0.3297815919,-0.0506978966,0.8583776951,0.3300617635,-1.1459475756,12.190987587,0,0,0,1490,1490,1614,1520,15.1300001144,807,14.404296875,217.937013367
78.7396819592,-0.2301356792,-0.0600105599,0.9424802661,0.0579831563,0.3355084956,11.6433267593,0,0,0,1490,1490,1614,1520,15.1300001144,757,11.962890625,180.998536525
78.8419039249,-0.1675886661,-0.055973269,0.9503155947,-1.0735520124,-0.374018997,8.7209196091,0,0,0,1490,1490,1614,1520,15.1400003433,796,13.8671875,209.949223511
78.9403920174,-0.1145055592,-0.0494699143,0.942027092,-0.7248404622,-0.2966853678,10.2230234146,0,0,0,1490,1490,1614,1520,15.1400003433,774,12.79296875,193.685551267
79.0429198742,-0.0847358257,-0.0381409936,0.9405041933,-0.0529928505,-0.9425777197,10.1570520401,0,0,0,1490,1490,1614,1520,15.1440000534,821,15.087890625,228.491016431
79.1409249306,-0.0350722112,-0.0276901945,0.9272564054,0.6355015635,1.6203744412,9.9614238739,0,0,0,1490,1489,1612,1520,15.1440000534,791,13.623046875,206.307422602
79.2430429459,0.0223659314,-0.0006319603,0.8848226666,-1.0765666962,-0.3660233021,7.9467601776,0,0,0,1490,1490,1600,1520,15.1490001678,732,10.7421875,162.73340024
79.3418610096,0.0360334441,0.0118286684,0.7871966362,0.8978514075,-0.5840876102,8.3722105026,0,0,0,1490,1490,1592,1520,15.1490001678,691,8.740234375,132.405812013
79.4439558983,0.0487900898,0.0250732806,0.4935035706,0.3664218783,-0.7228806019,3.5312175751,0,0,0,1490,1489,1560,1520,15.1630001068,669,7.666015625,116.239795741
79.5425639153,0.0520247146,0.033251904,0.1007919014,0.523591876,-0.6195783615,4.7467675209,0,0,0,1490,1490,1504,1520,15.1630001068,775,12.841796875,194.720167387
79.6449530125,0.0484916717,0.0491635203,-0.0755738914,-0.7506712079,0.2972145081,9.8915176392,0,0,0,1490,1490,1473,1520,15.1630001068,803,14.208984375,215.450831596
79.7430410385,0.0399432965,0.0615566894,-0.1242600754,-0.0551921539,-0.8780035377,7.6874146462,0,0,0,1490,1490,1473,1520,15.1630001068,786,13.37890625,202.864356898
79.8412849903,0.0301451944,0.0663207248,-0.1638251543,-0.5114787221,0.397021383,9.5304803848,0,0,0,1490,1489,1473,1520,15.1899995804,787,13.427734375,203.967279522
79.9435119629,0.0125128767,0.0747891515,-0.1728817821,2.9239802361,-0.8644002676,4.9575371742,0,0,0,1490,1490,1473,1520,15.1899995804,779,13.037109375,198.033685936
80.0422389507,0.0020430083,0.0610758699,-0.19335109,-0.3253364563,1.3424690962,10.0760011673,0,0,0,1490,1490,1473,1520,15.1890001297,759,12.060546875,183.187648049
80.1442809105,-0.0235301796,0.0585980825,-0.2275937796,0.7141252756,-2.3521339893,12.078625679,0,0,0,1490,1490,1473,1520,15.1890001297,787,13.427734375,203.953859163
80.24269104,-0.0348571129,0.0547390021,-0.2454348356,1.8751151562,-1.9192860127,7.8167452812,0,0,0,1490,1490,1473,1520,15.1840000153,799,14.013671875,212.783593964
80.3450448513,-0.0436894,0.0520646647,-0.250524193,1.5738749504,-0.9445176721,6.2660260201,0,0,0,1490,1490,1473,1522,15.1840000153,806,14.35546875,217.97343772
80.4436058998,-0.0465218052,0.0582473092,-0.2328336984,2.6670331955,-1.0336033106,9.0939378738,0,0,0,1490,1490,1473,1520,15.1809997559,784,13.28125,201.622653008
80.5455310345,-0.0467120595,0.0733939856,-0.2185373902,-0.0405290648,0.4969694316,7.6507129669,0,0,0,1490,1490,1473,1520,15.1809997559,777,12.939453125,196.433834732
80.6443190575,-0.0374201462,0.0850286409,-0.2173013091,1.1524921656,-0.9668636322,8.1881971359,0,0,0,1490,1490,1473,1520,15.1809997559,767,12.451171875,189.021237195
80.7466979027,-0.0320874155,0.0879387408,-0.2216424942,1.4974616766,-0.1181222051,9.8114833832,0,0,0,1490,1490,1473,1520,15.1809997559,781,13.134765625,199.398873747
80.8448178768,-0.0295034517,0.0939053521,-0.2269365937,0.299734652,-1.1969059706,8.6588716507,0,0,0,1490,1490,1473,1520,15.1759996414,807,14.404296875,218.59960421
80.9469878674,-0.0218040328,0.0864859223,-0.2168857604,0.1683973223,-0.3293011189,13.0260915756,0,0,0,1490,1490,1473,1520,15.1759996414,776,12.890625,195.628120377
81.0455930233,-0.0129551385,0.0756651461,-0.2176227719,0.1250665784,0.0426050834,8.6194877625,0,0,0,1491,1490,1473,1520,15.1739997864,783,13.232421875,200.788766705
81.1436698437,-0.0032016346,0.0641349107,-0.2170802951,0.6781638861,0.5174435973,6.6652994156,0,0,0,1490,1490,1473,1520,15.1739997864,791,13.623046875,206.716110371
81.2460379601,0.0012469633,0.0282612778,-0.2021435052,1.7888007164,-1.3043754101,7.352748394,0,0,0,1490,1490,1473,1520,15.1719999313,787,13.427734375,203.725585015
81.3443739414,0.0050333305,-0.0066591883,-0.2050551474,2.6570668221,-1.740334034,8.6668148041,0,0,0,1490,1490,1473,1520,15.1719999313,799,14.013671875,212.615428725
81.4470119476,0.0034846384,-0.0234347507,-0.2029343396,0.1804381311,-1.2051838636,10.2352571487,0,0,0,1490,1490,1503,1517,15.1719999313,771,12.646484375,191.872460069
81.5450389385,-0.000315854,-0.0522720851,-0.2100383937,0.1978843808,1.0615644455,10.0025558472,0,0,0,1490,1490,1524,1519,15.170999527,786,13.37890625,202.971380391
81.6475310326,-0.0033568416,-0.0717538446,-0.2215291113,1.5125024319,-0.2866387367,9.3097581863,0,0,0,1490,1490,1589,1517,15.170999527,976,22.65625,343.717958034
81.7456588745,-0.0152507722,-0.0856134742,0.1089441255,0.6032405496,-0.1242953613,11.9888563156,0,0,0,1490,1490,1597,1519,15.170999527,971,22.412109375,340.014100727
81.8479838371,-0.0313203335,-0.0848011896,0.5712378025,0.8370596766,-0.1705780625,10.0090265274,0,0,0,1490,1490,1597,1519,15.1079998016,788,13.4765625,203.603903576
81.946256876,-0.060809169,-0.0821166933,0.6928755641,-0.5917778611,-0.6845176816,10.8725061417,0,0,0,1490,1490,1597,1520,15.1079998016,783,13.232421875,199.915427062
82.0488069057,-0.082823284,-0.0621216819,0.7006322742,2.0443758965,-1.3316346407,11.2969942093,0,0,0,1490,1490,1597,1519,15.1079998016,757,11.962890625,180.735349189
82.1472718716,-0.0978785232,-0.0563822798,0.7071795464,1.4532855749,-0.4363839328,10.2643518448,0,0,0,1490,1489,1596,1518,15.107000351,767,12.451171875,188.099857886
82.2498629093,-0.1045578122,-0.0503877401,0.7045195103,-0.6167504191,0.513068974,9.3551988602,0,0,0,1490,1489,1596,1518,15.1199998856,775,12.841796875,194.167967281
82.3480670452,-0.1027666405,-0.0477591194,0.5762102008,-0.2562329471,0.4961991906,10.285326004,0,0,0,1490,1490,1583,1521,15.1199998856,748,11.5234375,174.234373682
82.4467148781,-0.1011910066,-0.0500898287,0.5345333219,0.747594595,-0.3697953224,7.624604702,0,0,0,1491,1490,1584,1521,15.140999794,768,12.5,189.262497425
82.5489230156,-0.0868818313,-0.0490267836,0.4631733298,-1.1735767126,-0.7945691943,10.8716964722,0,0,0,1490,1490,1574,1521,15.140999794,835,15.771484375,238.796041673
82.6470038891,-0.0725598857,-0.0437112972,0.357583195,0.462991029,-1.3457915783,8.329454422,0,0,0,1490,1490,1559,1520,15.1470003128,717,10.009765625,151.617923053
82.7494170666,-0.0623964742,-0.0383758768,0.1555477232,-0.2532300055,-1.4247332811,10.297296524,0,0,0,1490,1488,1558,1521,15.1470003128,818,14.94140625,226.317485142
82.8475120068,-0.0581439286,-0.0292060301,0.1455623358,0.2942072749,-0.1387639791,11.2755327225,0,0,0,1490,1490,1558,1520,15.1470003128,761,12.158203125,184.160306537
82.9500739574,-0.0578745529,-0.0297835749,0.1592991501,-0.2542934418,-1.2660249472,11.9965744019,0,0,0,1490,1490,1558,1520,15.154999733,788,13.4765625,204.237301089
83.0480809212,-0.0577198751,-0.0336863771,0.1420691907,2.3300857544,-1.5063811541,6.8757271767,0,0,0,1490,1490,1558,1520,15.1540002823,793,13.720703125,207.92353903
83.151350975,-0.0523362644,-0.0282611772,0.1607143432,1.4794018269,-0.4952278137,8.3778762817,0,0,0,1490,1490,1558,1521,15.1540002823,765,12.353515625,187.205179269
83.2491509914,-0.0402857624,-0.0350419804,0.1497804224,-0.160456419,-1.1908409596,12.093670845,0,0,0,1490,1488,1558,1521,15.1540002823,780,13.0859375,198.304300569
83.3513669968,-0.0249751993,-0.044919692,0.1590742618,1.4740954638,-1.1917003393,10.42619133,0,0,0,1490,1490,1558,1520,15.156999588,798,13.96484375,211.665130965
83.4497580528,-0.0200122409,-0.0538419224,0.155536443,1.5964041948,-0.9166542888,8.149107933,0,0,0,1490,1488,1558,1520,15.156999588,792,13.671875,207.224603742
83.5523929596,-0.0201199017,-0.0485057458,0.1399809569,-0.2217622548,0.2241626233,10.7563152313,0,0,0,1490,1490,1556,1522,15.1599998474,773,12.744140625,193.20116993
83.6501629353,-0.0266789403,-0.0439215675,0.0791612193,1.5529800654,-1.7951333523,6.3626852036,0,0,0,1490,1490,1504,1522,15.1599998474,768,12.5,189.499998092
83.7486159801,-0.0255165119,-0.034037292,-0.0262321159,0.3686623275,-0.6210910082,8.8348674774,0,0,0,1490,1490,1501,1522,15.1680002213,814,14.74609375,223.668753263
83.8512768745,-0.0129265636,-0.0110094044,-0.0338289589,-1.7138547897,0.0477773137,12.2123775482,0,0,0,1490,1490,1502,1522,15.1680002213,807,14.404296875,218.484378188
83.9496438503,-0.0119428579,-0.0045288866,-0.0297589712,-0.6481314301,-0.8151561618,8.156244278,0,0,0,1490,1488,1502,1520,15.1649999619,811,14.599609375,221.403075616
84.0518388748,-0.0023755226,0.0059442595,-0.0374089107,0.6802825332,0.2048886716,10.115395546,0,0,0,1490,1490,1502,1522,15.1649999619,797,13.916015625,211.036376423
84.150192976,0.0005275229,0.0124658598,-0.0337200686,0.5104598999,-0.3636411726,9.5618686676,0,0,0,1490,1490,1502,1522,15.1639995575,829,15.478515625,234.716204088
84.2523069382,-0.0023856894,0.0155828409,-0.032112319,0.0108173648,-0.7267144322,11.5018177032,0,0,0,1490,1490,1502,1520,15.1639995575,787,13.427734375,203.618158121
84.3506920338,0.0021973248,0.0113407373,-0.0255879387,-0.1753270626,0.3710939586,8.6156387329,0,0,0,1490,1490,1502,1522,15.1610002518,767,12.451171875,188.772219932
84.4529719353,-0.0003256366,0.0049187704,-0.0491721854,0.4195180833,-1.4623600245,11.2118492126,0,0,0,1490,1490,1501,1522,15.1610002518,797,13.916015625,210.980716395
84.5514359474,0.0079134423,-0.0080726128,-0.0712981969,0.1665674001,0.1425941586,9.9560117722,0,0,0,1490,1490,1502,1522,15.1619997025,789,13.525390625,205.071968632
84.6537969112,0.0157089364,-0.0189196207,-0.0756214038,1.3798356056,0.7697194219,9.8604326248,0,0,0,1490,1490,1501,1522,15.1619997025,781,13.134765625,199.149312499
84.7520470619,0.0432921201,-0.0466418378,-0.1000407487,-0.7751316428,0.6601389647,10.6352243423,0,0,0,1490,1490,1501,1522,15.1590003967,779,13.037109375,197.629546187
84.8551750183,0.0549384803,-0.0583892055,-0.1102939323,1.1021162272,-0.5284630656,8.5750904083,0,0,0,1490,1489,1501,1522,15.1590003967,776,12.890625,195.408989489
84.9530220032,0.0631825849,-0.066742748,-0.123426266,0.4359388649,0.0844819322,10.6926460266,0,0,0,1490,1490,1501,1520,15.154999733,769,12.548828125,190.177486884
85.0514709949,0.0568260849,-0.0676405206,-0.1381550282,-0.3597714305,-0.8101837635,13.4654130936,0,0,0,1490,1490,1501,1522,15.154999733,784,13.28125,201.277340204
85.1537740231,0.0519983247,-0.0612177253,-0.1436521262,-0.5382444263,-1.2277376652,9.4785881043,0,0,0,1490,1490,1501,1522,15.1479997635,799,14.013671875,212.279098248
85.2523698807,0.0387473963,-0.0483756326,-0.1540949494,2.2033994198,-0.9467951655,9.2124586105,0,0,0,1490,1490,1501,1522,15.1479997635,789,13.525390625,204.882613989
85.354156971,0.0378232896,-0.0535975955,-0.1504437029,0.6151890159,0.1710157543,9.8611984253,0,0,0,1490,1490,1502,1522,15.1459999084,803,14.208984375,215.209276042
85.4525978565,0.0389338434,-0.0650679395,-0.1641285867,-0.1031362936,0.0111742122,11.1811275482,0,0,0,1492,1492,1502,1522,15.1459999084,747,11.474609375,173.794432543
85.5548250675,0.0469182171,-0.0667987242,-0.158665359,1.8463398218,-0.7300239205,6.4182977676,0,0,0,1493,1493,1502,1522,15.1520004272,786,13.37890625,202.717193215
85.6531639099,0.044315137,-0.0695519745,-0.1874437481,0.1700718403,-0.3784340918,7.2388973236,0,0,0,1494,1515,1502,1522,15.1520004272,760,12.109375,183.481255173
85.7554059029,0.0438842662,-0.0625762492,-0.1940862238,-0.1442658305,-0.3914053738,9.0336828232,0,0,0,1493,1607,1502,1522,15.1510000229,798,13.96484375,211.581347976
85.8539099693,0.0341097303,-0.0776976496,-0.2207938135,0.9562824368,0.2140053511,9.8881864548,0,0,0,1493,1702,1502,1522,15.1510000229,797,13.916015625,210.841553053
85.9561078548,0.0222964063,-0.1482000202,-0.1939482689,0.7193078995,-0.0703936964,8.465795517,0,0,0,1493,1741,1502,1522,15.1470003128,812,14.6484375,221.879887395
86.0546629429,-0.0026507045,-0.3025513887,-0.1844049543,-0.1461788416,-1.7805678845,8.595826149,0,0,0,1493,1744,1502,1522,15.1470003128,807,14.404296875,218.181889271
86.1528890133,-0.0304269604,-0.5463113189,-0.1877801716,-0.9022316933,-1.127535224,12.50340271,0,0,0,1493,1744,1502,1522,15.1470003128,815,14.794921875,224.098686268
86.2554528713,-0.0676751435,-0.8450724483,-0.1848243177,0.1821655333,-1.4430742264,10.9264659882,0,0,0,1492,1744,1502,1522,15.142999649,817,14.892578125,225.51830532
86.3535568714,-0.1114179641,-1.1859588623,-0.1849793941,-0.2224801928,-0.6490837932,10.5973577499,0,0,0,1491,1741,1502,1522,15.1339998245,811,14.599609375,220.950485719
86.4559030533,-0.1587373912,-1.5952055454,-0.1859234273,-0.3096937239,-0.162531659,7.9319329262,0,0,0,1490,1740,1502,1522,15.1339998245,795,13.818359375,209.127048356
86.5542788506,-0.2022535354,-2.0060601234,-0.1952447295,-1.1412979364,-0.8802409768,11.0855455399,0,0,0,1489,1736,1502,1520,15.1339998245,743,11.279296875,170.700876927
86.6566019058,-0.246045053,-2.4437131882,-0.2074988335,-0.0688265786,-1.2486008406,10.0552425385,0,0,0,1488,1734,1502,1522,15.1260004044,783,13.232421875,200.153618632
86.7554309368,-0.2856403291,-2.8056674004,-0.2525276244,0.2146923393,0.526597321,10.4169921875,0,0,0,1488,1725,1502,1522,15.1210002899,820,15.0390625,227.405668422
86.8571710587,-0.3115204275,-3.0897605419,-0.2802358568,0.8605180979,-0.4810187817,6.4292311668,0,0,0,1488,1704,1502,1522,15.1210002899,784,13.28125,200.8257851
86.9556829929,-0.3338914514,-3.2303814888,-0.3220704496,0.3100214601,0.165179342,9.3240938187,0,0,0,1488,1628,1502,1520,15.1239995956,810,14.55078125,220.066009741
87.058259964,-0.3233346343,-3.198215723,-0.3258946538,-2.1618287563,-0.4947552383,10.1138858795,0,0,0,1489,1570,1502,1522,15.1239995956,862,17.08984375,258.466789964
87.1564819813,-0.299577266,-2.9756281376,-0.3535749912,-0.4093569219,-1.490542531,11.1339788437,0,0,0,1489,1495,1502,1522,15.125,837,15.869140625,240.020751953
87.258592844,-0.2592770755,-2.5687446594,-0.3245359659,0.0422452167,0.5964083672,9.7735719681,0,0,0,1488,1489,1502,1522,15.125,914,19.62890625,296.887207031
87.3577349186,-0.2143389732,-2.0483675003,-0.3524494767,1.8388174772,-2.7144854069,6.7687678337,0,0,0,1486,1486,1502,1522,15.125,841,16.064453125,242.974853516
87.4552309513,-0.1509694457,-1.5218628645,-0.3954229653,-0.9296833873,2.0949726105,5.8076395989,0,0,0,1487,1486,1503,1520,15.1160001755,863,17.138671875,259.06816707
87.5576159954,-0.1183016896,-1.0697753429,-0.3496840894,-2.3919279575,-1.5403001308,10.3136529922,0,0,0,1486,1486,1503,1520,15.1160001755,793,13.720703125,207.402150845
87.6561338902,-0.086581789,-0.761572361,-0.3533304632,-0.0485547632,-2.2335166931,14.9417591095,0,0,0,1486,1488,1503,1520,15.1149997711,808,14.453125,218.458981067
87.7582578659,-0.0534555316,-0.5432170033,-0.3627248406,0.9858413935,-0.8260570765,7.803311348,0,0,0,1489,1486,1503,1522,15.1149997711,746,11.42578125,172.700680978
87.8567948341,-0.0343646482,-0.3864972293,-0.389967531,1.003536582,-0.3502378464,9.3060951233,0,0,0,1510,1486,1502,1522,15.126999855,752,11.71875,177.269529551
87.959143877,-0.0022530593,-0.2769888341,-0.4255622327,-0.533046484,-0.6735078692,10.9122285843,0,0,0,1562,1485,1503,1522,15.126999855,812,14.6484375,221.586911938
88.0577089787,0.0562328212,-0.1980707645,-0.4420028925,0.7682369947,-2.0457630158,8.3595457077,0,0,0,1758,1482,1503,1522,15.1350002289,787,13.427734375,203.228762839
88.1597778797,0.1369834691,-0.1639288068,-0.4200142622,-0.5598660111,-0.0012718374,10.2074794769,0,0,0,1782,1483,1503,1520,15.1350002289,778,12.98828125,196.577639692
88.2580580711,0.3168925345,-0.1323286146,-0.3888846338,-0.4899624586,-0.5750588775,11.3903036118,0,0,0,1797,1483,1502,1522,15.126999855,834,15.72265625,237.836618814
88.3608908653,0.5933632851,-0.1212504059,-0.3541494906,0.5385654569,0.7468798161,8.8653411865,0,0,0,1796,1483,1502,1522,15.126999855,815,14.794921875,223.802781058
88.459059,0.9171841145,-0.1367347538,-0.3454245627,-0.9443797469,1.7746735811,9.3156032562,0,0,0,1793,1483,1502,1520,15.1199998856,831,15.576171875,235.511716968
88.5614309311,1.2721931934,-0.1842432022,-0.3329425454,1.1488320828,0.6464173794,12.8755645752,0,0,0,1785,1483,1502,1520,15.1199998856,837,15.869140625,239.941404435
88.6594879627,1.6861854792,-0.2329766452,-0.3350361586,2.7940835953,-1.489095211,8.5640325546,0,0,0,1782,1483,1503,1520,15.111000061,824,15.234375,230.206641554
88.7579400539,2.1231305599,-0.2710697055,-0.3076541722,1.7544021606,-1.6118167639,11.5769300461,0,0,0,1778,1483,1502,1522,15.111000061,856,16.796875,253.81757915
88.8601059914,2.5309145451,-0.2937861979,-0.3008953631,-0.7149980664,-2.530572176,8.2581548691,0,0,0,1772,1483,1502,1522,15.0989999771,859,16.943359375,255.827782815
88.958507061,2.9869637489,-0.328553468,-0.2933551669,1.9373213053,-0.9041121006,9.6472501755,0,0,0,1768,1483,1503,1520,15.0989999771,859,16.943359375,255.827782815
89.0608980656,3.3768351078,-0.3778266609,-0.2711518407,-0.8664954901,-1.1452395916,11.3220176697,0,0,0,1767,1482,1503,1520,15.0830001831,851,16.552734375,249.664895609
89.1594078541,3.7346804142,-0.405687809,-0.2573181689,0.9327629805,-1.6134613752,8.2798376083,0,0,0,1764,1482,1502,1522,15.0830001831,801,14.111328125,212.841164693
89.2617919445,3.9976973534,-0.4215469062,-0.2403977662,0.4441516101,-2.2028303146,8.0597476959,0,0,0,1752,1484,1502,1522,15.0869998932,759,12.060546875,181.957469415
89.3598129749,4.1459984779,-0.4439006746,-0.2199489474,1.5144444704,-2.9034659863,8.8492488861,0,0,0,1681,1491,1502,1522,15.0869998932,747,11.474609375,173.117430415
89.4621460438,4.1625013351,-0.4452141821,-0.1959171742,-0.9799234271,-2.1411757469,15.0269546509,0,0,0,1675,1491,1502,1522,15.095000267,760,12.109375,182.791018858
89.5610690117,3.9323952198,-0.4033840001,-0.1174809784,-0.0154734077,-0.5863888264,12.2677688599,0,0,0,1513,1491,1502,1522,15.095000267,759,12.060546875,182.053958298
89.662842989,3.5087480545,-0.3413945735,-0.0404492952,-0.6201512218,-4.2000436783,12.5905475616,0,0,0,1489,1492,1502,1522,15.1129999161,763,12.255859375,185.222801706
89.7613480091,3.1338119507,-0.2975127101,-0.0294387992,-1.8071447611,0.9900983572,8.7864675522,0,0,0,1488,1491,1502,1522,15.1129999161,783,13.232421875,199.981590687
89.8637368679,2.3019738197,-0.2228425145,-0.1036556214,1.6637479067,-1.0410423279,6.8603897095,0,0,0,1488,1490,1503,1520,15.123000145,732,10.7421875,162.45410312
89.9619998932,1.8607339859,-0.1988856047,-0.1694536954,0.2195241302,-1.34473598,9.3787889481,0,0,0,1487,1489,1502,1522,15.123000145,839,15.966796875,241.465871456
90.0603349209,1.5304321051,-0.1789519042,-0.192314893,-1.0656315088,-1.5926048756,13.1344184875,0,0,0,1488,1490,1502,1522,15.123000145,839,15.966796875,241.465871456
90.1627449989,1.0953868628,-0.1791737378,-0.1794734448,0.9620960355,1.2558484078,9.3718481064,0,0,0,1487,1489,1502,1522,15.123000145,858,16.89453125,255.495998543
90.2610218525,0.8524332047,-0.2220667154,-0.1292075068,0.3070901632,-0.7236374021,10.8669481277,0,0,0,1488,1486,1503,1520,15.123000145,843,16.162109375,244.419582422
90.363188982,0.6530742645,-0.2277472466,-0.0983903483,1.4219549894,-0.9063612819,10.6171169281,0,0,0,1489,1422,1502,1522,15.1120004654,827,15.380859375,232.435554033
90.4616818428,0.4877801538,-0.2018632293,-0.0092386659,1.1487576962,0.3983016312,13.0570516586,0,0,0,1493,1323,1502,1522,15.1120004654,815,14.794921875,223.580866261
90.5638990402,0.404678911,-0.0627129003,0.0435868278,-3.6020998955,-0.2349764556,10.2569055557,0,0,0,1493,1291,1502,1522,15.1059999466,875,17.724609375,267.747948272
90.6628329754,0.3427428007,0.2062899917,0.0557457469,1.5285271406,0.986220777,8.8970623016,0,0,0,1493,1266,1502,1522,15.0900001526,849,16.455078125,248.307131417
90.7649569511,0.3128549457,0.6184396744,0.0969621539,0.6274331212,-0.6251689792,10.3059234619,0,0,0,1493,1251,1502,1522,15.0900001526,806,14.35546875,216.624025628
90.863173008,0.2931579351,1.0319765806,0.0994399041,0.7238402963,-0.9918444753,13.2890100479,0,0,0,1493,1249,1502,1522,15.0819997787,859,16.943359375,255.539742344
90.965389967,0.3074633181,1.5067595244,0.0980662331,0.8703204989,-0.0754498616,9.0957374573,0,0,0,1493,1249,1502,1522,15.0819997787,831,15.576171875,234.919820772
91.064041853,0.3255344033,1.9881836176,0.1153265238,0.3188449442,-0.4348728359,10.6897830963,0,0,0,1493,1255,1502,1520,15.0740003586,797,13.916015625,209.770024522
91.166107893,0.354301393,2.4064645767,0.0730583221,1.879429698,0.321135968,9.0854349136,0,0,0,1493,1258,1502,1520,15.0740003586,855,16.748046875,252.4600646
91.2643799782,0.3754201531,2.8061509132,0.0897968039,1.1199159622,0.2549699247,10.9015684128,0,0,0,1493,1280,1502,1522,15.0690002441,800,14.0625,211.907815933
91.3627300262,0.3860608637,3.0404968262,0.0736375898,0.0392450169,-0.6174219251,11.0791521072,0,0,0,1493,1328,1503,1520,15.0690002441,822,15.13671875,228.095218539
91.4656610489,0.3917087913,3.1197600365,0.1672258377,0.8266508579,-0.6140512228,12.5744590759,0,0,0,1491,1426,1502,1522,15.0690002441,757,11.962890625,180.268801748
91.5637538433,0.3722710311,2.9822273254,0.2742207646,2.1226682663,-1.0624189377,7.1057128906,0,0,0,1485,1465,1502,1520,15.0649995804,808,14.453125,217.73632206
91.6657738686,0.3301966786,2.6261258125,0.3698601425,0.179068327,-1.3846908808,13.69835186,0,0,0,1486,1488,1502,1520,15.0649995804,785,13.330078125,200.81762136
91.7643039227,0.2648098469,2.0787043572,0.4189509451,-0.237170592,-2.2596769333,10.7721366882,0,0,0,1486,1490,1502,1520,15.0729999542,759,12.060546875,181.788622495
91.8666479588,0.199427858,1.5518701077,0.3913000226,0.5475463867,-0.7297040224,8.3374795914,0,0,0,1486,1490,1502,1520,15.0839996338,891,18.505859375,279.142376036
91.9648439884,0.1581299007,1.1282280684,0.3673259616,1.4218370915,-0.1555295289,11.2238149643,0,0,0,1486,1488,1502,1520,15.0839996338,892,18.5546875,279.878899455
92.0671150684,0.1251585037,0.8061891198,0.4160243273,0.0321155079,-0.7980352044,8.5428419113,0,0,0,1481,1487,1502,1520,15.0839996338,862,17.08984375,257.783196867
92.1654939651,0.0827963725,0.5931121707,0.4540717006,0.6973657012,-0.7742291689,11.2686061859,0,0,0,1444,1486,1502,1520,15.0760002136,837,15.869140625,239.243167452
92.2678990364,0.0391181782,0.4454259574,0.5084604621,0.229301393,-2.1704506874,9.764465332,0,0,0,1315,1492,1502,1520,15.0760002136,799,14.013671875,211.270120181
92.3662550449,-0.0617124885,0.3543014228,0.4874764979,0.3798870742,-0.9484502077,9.9323968887,0,0,0,1281,1492,1503,1520,15.0659999847,786,13.37890625,201.566601358
92.4648418427,-0.2305789143,0.3149664998,0.4620562494,-0.3803246021,-1.3913714886,11.9195299149,0,0,0,1258,1489,1502,1522,15.0659999847,779,13.037109375,196.417089644
92.5668158531,-0.4716448188,0.2970522344,0.4154060185,0.6019097567,-0.7937981486,8.9437646866,0,0,0,1259,1487,1502,1522,15.0749998093,809,14.501953125,218.616940594
92.6652479172,-0.7757984996,0.2863546908,0.3509440124,0.8980911374,-1.0645513535,7.1007514,0,0,0,1433,1488,1502,1522,15.0749998093,733,10.791015625,162.674558489
92.7680149078,-1.0584073067,0.2994836867,0.2533776164,1.4100083113,-0.2270175517,5.8320469856,0,0,0,1490,1488,1502,1522,15.0719995499,815,14.794921875,222.989055841
92.8659980297,-1.2361379862,0.3046309948,0.2226730585,0.4210268259,0.8321301937,10.3648414612,0,0,0,1489,1489,1502,1522,15.0719995499,843,16.162109375,243.595305225
92.9682769775,-1.2256257534,0.3084521592,0.251354903,2.4986717701,-0.2363611013,7.4295563698,0,0,0,1489,1489,1501,1522,15.0679998398,783,13.232421875,199.386130693
93.0671389103,-1.0706740618,0.2947158813,0.2340835482,-0.0658326596,-1.6149406433,12.4100723267,0,0,0,1489,1486,1481,1522,15.0679998398,779,13.037109375,196.443161974
93.1688559055,-0.8582343459,0.2631133497,0.1497299522,-0.160269171,-0.1891248822,8.3754882813,0,0,0,1489,1487,1480,1522,15.0729999542,768,12.5,188.412499427
93.2672488689,-0.6643483639,0.2390197515,0.0553139634,0.9621852636,-0.9591348767,6.4645681381,0,0,0,1489,1487,1480,1522,15.0729999542,775,12.841796875,193.564403709
93.3697750568,-0.5092558861,0.2118896246,-0.0375773273,1.3924319744,-1.3704262972,5.867005825,0,0,0,1489,1487,1469,1522,15.0860004425,790,13.57421875,204.780670069
93.4680268764,-0.3716524839,0.1888966113,-0.0889967084,1.066801548,-0.7308471799,11.1797323227,0,0,0,1490,1486,1451,1522,15.0860004425,626,5.56640625,83.9748071506
93.5703599453,-0.2711219192,0.164349854,-0.2193529159,0.0102575943,0.2763615251,7.1183347702,0,0,0,1490,1486,1451,1522,15.0959997177,787,13.427734375,202.705074334
93.6688148975,-0.1724034101,0.1386014968,-0.2685292661,1.4114847183,-0.7288828492,10.2735614777,0,0,0,1489,1486,1443,1522,15.0959997177,736,10.9375,165.112496912
93.7675709724,-0.1450665742,0.1348767728,-0.3056045473,1.3054289818,-0.6272918582,9.4472265244,0,0,0,1489,1486,1440,1522,15.1000003815,827,15.380859375,232.25098243
93.8694169521,-0.0553806126,0.0980982184,-0.3509725928,0.1823928654,-0.3442176878,8.6618032455,0,0,0,1490,1487,1439,1522,15.1000003815,779,13.037109375,196.860356536
93.9679999352,-0.0113742035,0.0885092393,-0.3534517586,-0.8704022169,-1.0170879364,7.457482338,0,0,0,1489,1486,1440,1522,15.0989999771,800,14.0625,212.329687178
94.0700819492,0.0360591449,0.0512718633,-0.3459669054,-1.2280412912,-0.321497798,11.5937423706,0,0,0,1490,1483,1440,1520,15.0989999771,800,14.0625,212.329687178
94.1694848537,0.0720618516,0.0296637397,-0.3482223451,1.6346958876,-0.331299603,12.5333890915,0,0,0,1489,1433,1440,1520,15.0920000076,827,15.380859375,232.127929804
94.2709410191,0.0891545266,0.0341189094,-0.3398577273,-0.7492188811,-0.8728989363,8.5939388275,0,0,0,1485,1340,1440,1520,15.0920000076,787,13.427734375,202.65136729
94.3691589832,0.0992399156,0.0724563524,-0.3367683589,2.4994568825,-0.3084139824,9.0018987656,0,0,0,1485,1303,1440,1522,15.0939998627,846,16.30859375,246.161911823
94.4715249538,0.1059738696,0.2067385912,-0.3374474943,-3.0874624252,-0.6967124939,11.2635297775,0,0,0,1485,1285,1440,1522,15.0939998627,792,13.671875,206.363279373
94.5699739456,0.1084746271,0.2525174916,-0.3335366249,-3.6467106342,0.4221833944,12.3231897354,0,0,0,1485,1269,1440,1520,15.095000267,857,16.845703125,254.28589317
94.6721160412,0.1182514727,0.6774710417,-0.3149405122,1.045462966,-1.6063381434,12.209821701,0,0,0,1486,1340,1440,1522,15.095000267,809,14.501953125,218.906986294
94.7706949711,0.1227337047,0.7921875715,-0.3210457861,0.8256894946,-2.3050391674,7.2802147865,0,0,0,1489,1449,1440,1522,15.0909996033,853,16.650390625,251.271038317
94.872879982,0.1224969625,1.1253018379,-0.4054304063,1.1384032965,-2.9610211849,7.9587726593,0,0,0,1490,1489,1440,1520,15.0909996033,751,11.669921875,176.110786386
94.9712479115,0.1177350953,1.2221395969,-0.3778931797,1.9490389824,0.0365449227,7.9416575432,0,0,0,1489,1489,1440,1522,15.0860004425,834,15.72265625,237.191999145
95.0695929527,0.0824133158,1.1948888302,-0.3290965855,0.7620055079,-1.4488897324,11.1965551376,0,0,0,1489,1489,1440,1522,15.0860004425,772,12.6953125,191.521489993
95.1722278595,0.0427601896,1.00745821,-0.2985479236,-0.1244291216,-0.5973467231,10.0275630951,0,0,0,1490,1493,1440,1522,15.0860004425,769,12.548828125,189.311626647
95.2704589367,-0.0164439343,0.7635964155,-0.3053240478,-1.016928792,0.9558514357,6.4519066811,0,0,0,1489,1603,1440,1522,15.0860004425,859,16.943359375,255.607527029
95.3725168705,-0.055345729,0.4671654403,-0.3380146325,1.3207675219,-0.3493584991,7.0449867249,0,0,0,1489,1649,1440,1520,15.0860004425,822,15.13671875,228.35254576
95.4709579945,-0.0625008717,0.0685774982,-0.3026130497,0.00280787,-0.4170965254,10.8991374969,0,0,0,1489,1682,1440,1522,15.0810003281,837,15.869140625,239.322514972
95.5732240677,-0.0898472145,-0.4459264874,-0.2735384703,-0.5295885205,-0.3610289991,12.0423145294,0,0,0,1489,1689,1440,1522,15.0810003281,839,15.966796875,240.795268911
95.6715209484,-0.1346849203,-0.9942523837,-0.3097048104,0.4651478231,-0.454595536,11.0683794022,0,0,0,1490,1664,1440,1520,15.0810003281,787,13.427734375,202.503666515
95.77384305,-0.1729582846,-1.4317352772,-0.3600112498,1.0330597162,-0.4868635237,7.947634697,0,0,0,1490,1610,1440,1520,15.0810003281,787,13.427734375,202.503666515
95.8723049164,-0.1888319254,-1.6749011278,-0.3783380687,0.7122237682,-1.0535413027,10.0537538528,0,0,0,1491,1514,1440,1520,15.0749998093,831,15.576171875,234.810788045
95.9746608734,-0.1861286312,-1.6629971266,-0.3659954071,-0.5071561933,0.3053969443,6.4164009094,0,0,0,1489,1485,1440,1522,15.0749998093,817,14.892578125,224.505612394
96.0730218887,-0.1709535867,-1.435000658,-0.3478283286,-0.0267365165,0.9258496165,5.9895062447,0,0,0,1489,1486,1440,1520,15.0780000687,819,14.990234375,226.022754936
96.1751830578,-0.13728109,-1.1362251043,-0.351295948,1.3985718489,2.2863945961,9.1487340927,0,0,0,1582,1484,1440,1520,15.0780000687,763,12.255859375,184.793848498
96.2736990452,-0.0960798711,-0.8654441237,-0.3619162738,0.2969722152,0.5394245982,10.5592279434,0,0,0,1761,1484,1440,1520,15.0710000992,884,18.1640625,273.750587739
96.372273922,0.0222897977,-0.6346288919,-0.3242782652,-0.0421038121,-1.6718428135,11.2383041382,0,0,0,1775,1484,1440,1522,15.0710000992,791,13.623046875,205.312940805
96.4746909142,0.1656781286,-0.522587359,-0.3087316751,0.926769793,0.3429261446,10.0514602661,0,0,0,1820,1484,1440,1520,15.0600004196,800,14.0625,211.781255901
96.5728719234,0.4560821056,-0.4188055992,-0.2843517661,-2.0719285011,0.4801377654,12.5702219009,0,0,0,1821,1483,1440,1520,15.0600004196,811,14.599609375,219.870123313
96.6757309437,0.8221071959,-0.3432797492,-0.2794854045,-0.4922528863,-1.4951020479,10.6292581558,0,0,0,1821,1483,1440,1520,15.0590000153,839,15.966796875,240.443994385
96.7734520435,1.242156148,-0.3100065589,-0.2782510221,2.3708331585,-1.3793679476,7.8267297745,0,0,0,1820,1483,1440,1522,15.0590000153,871,17.529296875,263.973681909
96.875756979,1.6580773592,-0.3002133071,-0.2836948335,2.0875928402,-0.0452949405,9.7889556885,0,0,0,1815,1483,1440,1520,15.0539999008,870,17.48046875,263.150974828
96.9743289948,2.1055600643,-0.2998066545,-0.277480334,1.1748372316,-3.905320406,9.3085594177,0,0,0,1804,1483,1440,1522,15.0539999008,847,16.357421875,246.244627284
97.0764210224,2.5593829155,-0.3204005063,-0.2710570693,1.1438802481,-0.5942488909,13.0400686264,0,0,0,1801,1483,1440,1520,15.0539999008,884,18.1640625,273.441795073
97.174697876,3.0431566238,-0.3516203165,-0.2642664611,-1.6294927597,-3.3269739151,10.7422714233,0,0,0,1791,1482,1440,1520,15.0539999008,831,15.576171875,234.483689861
97.2770159245,3.4946494103,-0.388677299,-0.2590457797,1.7858920097,0.0178052876,8.7942447662,0,0,0,1789,1482,1440,1522,15.0349998474,832,15.625,234.921872616
97.3756899834,3.9319617748,-0.4450852275,-0.2990599573,0.2845644951,-3.3342962265,12.0419158936,0,0,0,1783,1483,1440,1522,15.0349998474,817,14.892578125,223.909909837
97.4779138565,4.2655305862,-0.4889374375,-0.3215857148,2.0494678021,-1.9039008617,6.7587389946,0,0,0,1768,1482,1440,1520,15.029999733,779,13.037109375,195.947750425
97.5762050152,4.423956871,-0.4965071082,-0.3285562396,1.4592548609,-2.0339200497,7.8405041695,0,0,0,1745,1486,1440,1522,15.029999733,795,13.818359375,207.689937717
97.6746239662,4.559969902,-0.5006186366,-0.3027468622,-0.6444733739,-1.4436463118,9.3494644165,0,0,0,1657,1488,1440,1520,15.029999733,731,10.693359375,160.721188551
97.776843071,4.5237226486,-0.4986810684,-0.3164928257,1.0542312861,-2.0677828789,10.065331459,0,0,0,1573,1488,1440,1520,15.029999733,731,10.693359375,160.721188551
97.8751070499,4.190680027,-0.4501688182,-0.2109857351,0.3936987221,-0.8032858372,12.4918689728,0,0,0,1492,1491,1440,1520,15.0410003662,731,10.693359375,160.838822275
97.9776380062,3.8359496594,-0.4015850723,-0.1676644087,-0.3002940714,0.0807735175,10.830078125,0,0,0,1488,1490,1440,1522,15.0410003662,768,12.5,188.012504577
98.0764639378,3.49096632,-0.3455865085,-0.1538274139,0.5545606613,0.1626165956,8.8355312347,0,0,0,1489,1490,1440,1520,15.0410003662,730,10.64453125,160.104398429
98.1782090664,2.8146352768,-0.2492472529,-0.1961684376,2.2373874188,-0.7551665902,8.4810180664,0,0,0,1488,1490,1440,1520,15.0530004501,737,10.986328125,165.377202211
98.2770550251,2.1365971565,-0.1653329134,-0.2721887231,1.9228460789,-0.0147545515,11.090634346,0,0,0,1487,1490,1440,1522,15.0530004501,811,14.599609375,219.767926493
98.378839016,1.5940741301,-0.1208780035,-0.3261733949,2.4216563702,-0.2843800485,6.8805727959,0,0,0,1488,1488,1440,1520,15.0679998398,788,13.4765625,203.064841591
98.4772620201,1.1677049398,-0.0911208093,-0.3262444437,-1.1398409605,-0.7577123642,9.310043335,0,0,0,1487,1488,1440,1522,15.0690002441,779,13.037109375,196.456204354
98.5798099041,0.7776337266,-0.0676179156,-0.3494674265,-0.2772932053,-0.8799972534,10.7233982086,0,0,0,1488,1489,1440,1520,15.0690002441,809,14.501953125,218.529935181
98.6782419682,0.6535333395,-0.0552270152,-0.3486864865,2.3699793816,-0.3023040593,10.397559166,0,0,0,1488,1489,1440,1520,15.0690002441,782,13.18359375,198.663577437
98.7764129639,0.5078347921,-0.0680646747,-0.3340791166,-0.0553080887,-0.1594674736,10.5053539276,0,0,0,1487,1489,1440,1522,15.0659999847,816,14.84375,223.635937273
98.878880024,0.4043418169,-0.0781775564,-0.3498777151,1.435439229,1.2978862524,11.0099658966,0,0,0,1487,1489,1440,1520,15.0679998398,787,13.427734375,202.329099411
98.9771039486,0.3107734919,-0.0863777101,-0.3440399766,0.976667285,-0.8811281323,10.7234382629,0,0,0,1487,1489,1440,1520,15.0679998398,796,13.8671875,208.950779028
99.0796868801,0.2208999693,-0.0883873552,-0.3576672673,-0.0303704292,-1.1954370737,12.1820173264,0,0,0,1486,1489,1440,1521,15.0640001297,831,15.576171875,234.639455145
99.1777589321,0.1522728354,-0.0742059201,-0.3562460244,-0.1279336363,-0.0073799165,8.6556167603,0,0,0,1487,1489,1440,1523,15.0640001297,816,14.84375,223.606251925
99.2805469036,0.0977956057,-0.053423468,-0.3595430255,0.0949764848,-2.7371706963,9.6122903824,0,0,0,1488,1490,1440,1523,15.0640001297,823,15.185546875,228.755080095
99.3785870075,0.0409259051,-0.0332393236,-0.3555205762,2.2315182686,-1.281354785,6.2931337357,0,0,0,1489,1492,1440,1528,15.0699996948,790,13.57421875,204.56347242
99.4808528423,-0.0046812408,-0.0303370189,-0.3614040017,0.5925813913,-0.4514548481,9.2611579895,0,0,0,1488,1532,1440,1541,15.0699996948,806,14.35546875,216.336909681
99.5792229176,-0.0397383794,-0.0190966167,-0.3545541465,1.4041329622,-1.5223038197,9.4884147644,0,0,0,1488,1554,1441,1563,15.0699996948,792,13.671875,206.035152077
99.6819319725,-0.051967904,-0.0328766145,-0.3738198876,-0.1016582623,0.8788918257,11.0330295563,0,0,0,1489,1559,1440,1624,15.0699996948,783,13.232421875,199.412593618
99.7799780369,-0.0319784954,-0.0988225713,-0.3369945586,1.3264994621,-1.979092598,10.2245445251,0,0,0,1488,1570,1438,1631,15.0690002441,770,12.59765625,189.834085106
99.8823890686,0.0064284373,-0.1868573576,-0.3814372122,1.8058847189,-1.2343643904,8.6490383148,0,0,0,1488,1582,1435,1641,15.0659999847,819,14.990234375,225.842870864
99.9805688858,0.0463553034,-0.3122129738,-0.3956086934,-0.7103113532,0.0578037724,10.0951814651,0,0,0,1488,1588,1435,1640,15.0659999847,783,13.232421875,199.359667766
100.079253912,0.1052810773,-0.4540811479,-0.3998396993,1.3489652872,-1.7514778376,8.3492660523,0,0,0,1489,1588,1435,1641,15.0620002747,800,14.0625,211.809378863
100.181143999,0.1578770429,-0.5569354892,-0.3872855008,0.5592414737,0.6890012622,11.916592598,0,0,0,1489,1585,1436,1639,15.0620002747,836,15.8203125,238.285551221
100.279608011,0.21149306,-0.630533576,-0.4028091431,0.2763057053,0.5939440727,9.5734519959,0,0,0,1489,1581,1435,1638,15.0620002747,755,11.865234375,178.714163416
100.382824898,0.2700500786,-0.6195906401,-0.3794781864,-0.9838024378,-0.9988878965,14.0755872726,0,0,0,1490,1581,1435,1638,15.0600004196,783,13.232421875,199.28027899
100.48052907,0.3127063513,-0.603785038,-0.3885267675,-0.2152229846,1.3260217905,10.3241615295,0,0,0,1490,1582,1435,1638,15.0600004196,805,14.306640625,215.458013816
100.583049059,0.3468894064,-0.5513727069,-0.3767556548,-0.537217617,0.7291096449,11.1726236343,0,0,0,1490,1584,1435,1638,15.0600004196,811,14.599609375,219.870123313
100.680943012,0.3774131238,-0.5052942634,-0.3629566729,-0.6461855173,0.0515302345,6.7223463059,0,0,0,1490,1574,1435,1638,15.0600004196,735,10.888671875,163.983403006
100.783102989,0.4065562487,-0.4346736073,-0.3167943358,-1.0996406078,-0.4712954462,9.1494598389,0,0,0,1490,1504,1435,1623,15.0629997253,759,12.060546875,181.668014265
100.881697893,0.3509705663,-0.3373757601,-0.3317267299,1.0956577063,-1.3321262598,7.2935428619,0,0,0,1488,1488,1435,1587,15.0629997253,811,14.599609375,219.913912005
100.984225035,0.2406847179,-0.2265464216,-0.3448660374,-2.4370012283,1.417091012,11.344669342,0,0,0,1486,1485,1435,1532,15.0690002441,779,13.037109375,196.456204354
101.082455873,0.0907239243,-0.1094628796,-0.3288474083,-2.0537133217,-0.3453266025,11.8012552261,0,0,0,1486,1485,1435,1524,15.0690002441,721,10.205078125,153.780324757
101.18504405,-0.0336590968,-0.0188958198,-0.3203955293,0.444881916,-6.4400897026,13.3793554306,0,0,0,1487,1485,1436,1520,15.0749998093,804,14.2578125,214.936520719
101.283185959,-0.1488793194,0.0823787078,-0.3191388547,-1.2563023567,0.233973965,11.7438154221,0,0,0,1487,1486,1436,1520,15.0749998093,804,14.2578125,214.936520719
101.381428957,-0.2393149883,0.1384439766,-0.3309228718,0.4127722383,1.5106136799,3.9345571995,0,0,0,1487,1486,1436,1520,15.0819997787,777,12.939453125,195.152829168
101.483773947,-0.2956398427,0.1768833697,-0.3385689855,0.4817546904,-4.1980466843,9.6147785187,0,0,0,1486,1485,1436,1522,15.0819997787,736,10.9375,164.95937258
101.581949949,-0.3352844119,0.1844286174,-0.2946285307,-1.6521698237,-3.4679009914,13.6367969513,0,0,0,1486,1485,1435,1517,15.079000473,783,13.232421875,199.531695712
101.684483051,-0.3275969923,0.1842986345,-0.3205767274,-0.4457911849,1.1414326429,9.2122011185,0,0,0,1487,1485,1435,1418,15.079000473,751,11.669921875,175.970757473
101.782778978,-0.3046226501,0.1746323109,-0.3102463186,0.6868316531,-2.2015380859,8.7237443924,0,0,0,1486,1485,1432,1346,15.0819997787,747,11.474609375,173.060056054
101.885274887,-0.2990130484,0.1512497962,-0.3530326486,0.7791016698,3.3368830681,6.142015934,0,0,0,1486,1485,1430,1335,15.0819997787,686,8.49609375,128.138084057
101.983675957,-0.2921133637,0.1378120482,-0.3584677279,-0.6190980077,-1.4323629141,12.3159627914,0,0,0,1487,1485,1426,1322,15.0780000687,748,11.5234375,173.750391417
102.085834026,-0.2792585492,0.1372354329,-0.3956872225,0.7936684489,3.4229898453,6.2228703499,0,0,0,1488,1486,1426,1323,15.0780000687,787,13.427734375,202.463379829
102.18432188,-0.2559668124,0.1524518728,-0.3820523918,-2.6338951588,4.5439434052,8.1026496887,0,0,0,1488,1486,1429,1375,15.0710000992,791,13.623046875,205.312940805
102.286668062,-0.2341646552,0.1906473339,-0.4102842212,-0.8811360002,-0.0770367607,9.7133455277,0,0,0,1487,1486,1429,1518,15.0710000992,805,14.306640625,215.615382279
102.384929895,-0.1835739464,0.2036470473,-0.4393042624,0.8767870069,-3.0783901215,9.6537046433,0,0,0,1487,1486,1429,1518,15.0719995499,756,11.9140625,179.568744637
102.487333059,-0.106202364,0.1954125464,-0.463073045,-1.881729722,-0.4823752344,10.6051902771,0,0,0,1486,1485,1428,1518,15.0719995499,797,13.916015625,209.742181236
102.585502863,-0.0413162261,0.1709405333,-0.4553052187,-1.8670245409,0.9794027209,13.3425331116,0,0,0,1486,1485,1428,1518,15.0769996643,775,12.841796875,193.615767173
102.683833838,0.01956903,0.129251197,-0.487041235,-2.1613306999,-1.9608362913,14.3162240982,0,0,0,1487,1485,1458,1518,15.0769996643,971,22.412109375,337.907365523
102.786526918,0.0797139779,0.0637103021,-0.2015663087,0.8490615487,-5.2008185387,12.4875659943,0,0,0,1487,1485,1518,1518,15.0760002136,777,12.939453125,195.075198076
102.884521008,0.0983426645,0.0286632422,-0.0796170756,0.0274441559,-3.3292059898,10.1387014389,0,0,0,1487,1486,1521,1518,15.0760002136,779,13.037109375,196.547463722
102.986903906,0.1118537188,0.0046162754,-0.0804001912,-0.8074100018,0.3609068096,9.490778923,0,0,0,1486,1486,1518,1518,15.0340003967,789,13.525390625,203.340728022
103.085491896,0.102724798,-0.0117155425,-0.111041069,-1.0953963995,0.5101386905,8.6103467941,0,0,0,1488,1486,1519,1520,15.0340003967,763,12.255859375,184.254594706
103.187821865,0.0782784,-0.0151256099,-0.1295249164,0.1357693076,-0.9351352453,12.5524425507,0,0,0,1487,1486,1519,1519,15.0439996719,825,15.283203125,229.920502798
103.285791874,0.0458506458,-0.0048456327,-0.1449695826,0.7776128054,-1.1483172178,8.4523563385,0,0,0,1487,1486,1520,1517,15.0439996719,792,13.671875,205.679683014
103.388579845,0.0095321219,0.0215123612,-0.1692176461,-2.5130815506,-1.6611728668,11.2175159454,0,0,0,1558,1485,1520,1517,15.045999527,783,13.232421875,199.095013272
103.486701965,-0.0057206885,0.0504675694,-0.1883250624,-0.9836767912,-1.0579565764,8.0517206192,0,0,0,1725,1486,1519,1517,15.045999527,775,12.841796875,193.217669707
103.589304924,0.0334649235,0.0896630734,-0.2119513005,2.1785874367,0.2115278393,10.4794988632,0,0,0,1762,1486,1519,1517,15.0430002213,815,14.794921875,222.56001304
103.687800884,0.1344497204,0.1743060201,-0.1778562218,-0.6832546592,0.1830244362,11.2980794907,0,0,0,1774,1486,1519,1517,15.0430002213,823,15.185546875,228.436185001
103.785563946,0.3063361049,0.2779346108,-0.1524279416,-2.0353076458,-3.4817202091,14.37241745,0,0,0,1774,1485,1519,1517,15.0450000763,851,16.552734375,249.035889935
103.888393879,0.5547094941,0.4056926072,-0.1291935891,-0.7638353705,-1.179700017,11.6861124039,0,0,0,1773,1485,1519,1517,15.0450000763,815,14.794921875,222.589600738
103.986364841,0.8463702202,0.5390372276,-0.1218918189,0.2712435722,-1.1082721949,10.498210907,0,0,0,1769,1488,1519,1517,15.0450000763,843,16.162109375,243.15893678
104.08859992,1.1763892174,0.6895638108,-0.1385854483,-1.214889288,-4.1939592362,10.8227930069,0,0,0,1768,1488,1520,1517,15.0450000763,723,10.302734375,155.004639458
104.187515974,1.5594856739,0.8590528369,-0.1526959836,0.2303020209,0.0086189723,10.0442218781,0,0,0,1764,1488,1518,1517,15.0389995575,855,16.748046875,251.873869542
104.28926897,1.9424091578,1.0241322517,-0.1759483069,1.2699674368,-2.1115238667,10.0620727539,0,0,0,1762,1488,1519,1517,15.0389995575,847,16.357421875,245.99926034
104.38774395,2.3892483711,1.2164295912,-0.1594728231,0.4198900461,1.3268414736,10.6010799408,0,0,0,1760,1488,1519,1517,15.0310001373,862,17.08984375,256.877443753
104.489886045,2.6614503861,1.344802618,-0.1679219902,0.0430113412,0.3927574158,10.326921463,0,0,0,1738,1488,1520,1517,15.0310001373,811,14.599609375,219.44673052
104.588320017,2.922188282,1.4473108053,-0.1699209511,-0.0160945784,-1.7891845703,9.3526859283,0,0,0,1708,1488,1519,1519,15.0190000534,775,12.841796875,192.870947951
104.691422939,3.2291238308,1.5897054672,-0.2112510949,-0.9046849012,0.1188797727,11.3955383301,0,0,0,1595,1490,1519,1517,15.0190000534,741,11.181640625,167.937061144
104.789533854,3.2612843514,1.6022446156,-0.1883341521,-1.0452679396,0.1152116209,14.2545528412,0,0,0,1516,1491,1519,1517,15.0279998779,767,12.451171875,187.116209417
104.891370058,3.1946053505,1.5704226494,-0.1287013739,-0.9016367197,-3.4489529133,14.7948684692,0,0,0,1490,1490,1519,1517,15.0279998779,787,13.427734375,201.791990548
104.989860058,2.7616608143,1.3908228874,-0.0578576475,0.3656508029,0.2328640074,7.7209858894,0,0,0,1489,1488,1519,1517,15.0279998779,799,14.013671875,210.597459226
105.088072062,2.2548882961,1.1940777302,-0.0572694801,1.1349109411,1.3410569429,8.9275865555,0,0,0,1489,1488,1519,1517,15.031999588,819,14.990234375,225.333196949
105.190943956,1.7632035017,1.0002286434,-0.116609633,-0.0038848375,-0.2398295403,9.9537191391,0,0,0,1489,1487,1519,1517,15.031999588,770,12.59765625,189.36796356
105.288905859,1.4504673481,0.8699038625,-0.1064485908,3.5867385864,-3.2863445282,10.3409318924,0,0,0,1487,1487,1519,1517,15.0360002518,891,18.505859375,278.254106222
105.391098022,1.0564242601,0.7054337859,-0.0497774519,-1.6319978237,-2.8647310734,17.4505634308,0,0,0,1488,1488,1520,1517,15.0360002518,814,14.74609375,221.722269338
105.489582062,0.7721544504,0.5497751832,0.0068047699,-0.6186364889,0.2332780361,11.3392572403,0,0,0,1487,1486,1518,1517,15.0229997635,781,13.134765625,197.323580878
105.591963053,0.5537944436,0.3491743505,0.0402943566,-0.3419678509,-1.8040716648,9.4265966415,0,0,0,1488,1486,1520,1517,15.0229997635,820,15.0390625,225.931832381
105.690238953,0.4419534206,0.2336775959,0.0939244479,2.1641669273,0.5651988983,8.6373882294,0,0,0,1487,1486,1548,1517,15.0170001984,559,2.294921875,34.4628422522
105.792757988,0.3567840755,0.1382303387,0.0739862621,-0.2982207835,-1.2739049196,11.5756788254,0,0,0,1488,1488,1567,1518,15.0170001984,821,15.087890625,226.574856509
105.890753031,0.2759305835,0.0611151308,0.2284239233,0.0827997923,-0.8010706306,9.8981046677,0,0,0,1488,1488,1567,1517,15.015999794,793,13.720703125,206.030075299
105.993758917,0.2023129761,0.0237704273,0.252389878,-0.1192049235,-0.6956477761,9.1386451721,0,0,0,1487,1486,1565,1517,15.015999794,681,8.251953125,123.911326425
106.091568947,0.1532845199,0.0129478825,0.2422653586,0.0165627562,-1.9095299244,9.8176231384,0,0,0,1487,1486,1564,1517,15.0220003128,828,15.4296875,231.784770451
106.19392395,0.0992174745,0.0099604642,0.2201376408,-0.0609106235,0.2612134814,10.1424922943,0,0,0,1487,1486,1561,1517,15.0249996185,750,11.62109375,174.60692916
106.29234004,0.0645095408,0.018387014,0.1786796451,-0.7463841438,-0.5742654204,9.4720144272,0,0,0,1487,1486,1560,1519,15.0249996185,826,15.33203125,230.363763682
106.390503883,0.039627444,0.0337054469,0.1551830471,-1.9368841648,-0.4170668125,10.3740777969,0,0,0,1486,1486,1550,1520,15.0249996185,735,10.888671875,163.602290768
106.492941856,0.0136360861,0.0521514714,0.019854296,0.9253066182,0.8370243907,6.2788758278,0,0,0,1487,1486,1522,1519,15.0260000229,832,15.625,234.781250358
106.591315985,-0.0147246122,0.0698276535,-0.0807208046,-0.0419201106,0.2567428947,10.9367637634,0,0,0,1488,1488,1520,1519,15.0260000229,788,13.4765625,202.498828434
106.693932056,-0.0405498482,0.095404312,-0.0981492922,-1.1830271483,1.028393507,8.2663650513,0,0,0,1488,1488,1520,1517,15.0260000229,776,12.890625,193.694531545
106.792026997,-0.0569927245,0.1143900603,-0.1308613718,-1.3792084456,-2.349455595,13.8283462524,0,0,0,1488,1492,1520,1517,15.0260000229,876,17.7734375,267.063672282
106.894533873,-0.083646968,0.1355113387,-0.1689499319,0.2631420791,-0.8938014507,11.2211637497,0,0,0,1489,1655,1520,1519,15.029999733,807,14.404296875,216.496578185
106.992588043,-0.0746434852,0.1067246795,-0.1957990229,0.2813817561,2.5464744568,5.0058631897,0,0,0,1488,1732,1520,1517,15.0310001373,887,18.310546875,275.225832592
107.095355988,-0.0404199548,0.0495406017,-0.1699851751,-0.8256200552,1.7771300077,5.4799184799,0,0,0,1488,1750,1520,1517,15.0310001373,839,15.966796875,239.99692602
107.193268061,0.1362692416,-0.2634821534,-0.060306184,0.0274943449,0.6904290318,11.6622104645,0,0,0,1488,1752,1520,1519,15.0310001373,791,13.623046875,204.768019449
107.295732975,0.3234472275,-0.6067247987,-0.0568885207,-0.370960474,-1.1774506569,9.6834754944,0,0,0,1488,1748,1520,1517,15.0249996185,826,15.33203125,230.363763682
107.394093037,0.5355744958,-1.0285321474,-0.055050049,-0.128776893,0.5439582467,11.5569581985,0,0,0,1488,1747,1520,1519,15.0249996185,830,15.52734375,233.29833392
107.496290922,0.767803967,-1.4791522026,-0.0534185842,-2.809415102,0.0381045155,7.055036068,0,0,0,1488,1739,1520,1517,15.0220003128,827,15.380859375,231.051274342
107.594722986,0.9837560654,-1.882218957,-0.0392301753,-0.6474528909,-1.8537802696,10.9491043091,0,0,0,1486,1734,1520,1519,15.0220003128,738,11.03515625,165.770120639
107.69344306,1.16641891,-2.254994154,-0.0369661339,-0.2408053726,-0.2542052865,4.0249681473,0,0,0,1486,1724,1520,1519,15.0129995346,771,12.646484375,189.861664036
107.795940876,1.2648375034,-2.4516515732,-0.0544666387,-2.3848741055,-2.2265827656,15.1507301331,0,0,0,1486,1711,1520,1517,15.0129995346,789,13.525390625,203.056683158
107.893862963,1.3992602825,-2.7312972546,-0.0336087681,-1.5266565085,-2.0213460922,9.9618244171,0,0,0,1486,1697,1520,1519,15.013999939,781,13.134765625,197.205370293
107.996408939,1.4208458662,-2.7959668636,-0.0193241369,-3.6225035191,-3.0551815033,11.7876739502,0,0,0,1486,1690,1520,1519,15.013999939,746,11.42578125,171.546678991
108.094820976,1.4212296009,-2.8033001423,0.0245513078,1.4833761454,0.4769995809,7.0787916184,0,0,0,1486,1652,1520,1517,15.0209999084,731,10.693359375,160.624950192
108.197356939,1.3767025471,-2.7049562931,0.0294829011,0.0598675497,0.0266519282,7.1237869263,0,0,0,1486,1610,1520,1519,15.0209999084,736,10.9375,164.292186498
108.295744896,1.2524235249,-2.4520945549,0.0412408598,0.0140161142,-1.3653899431,8.2040815353,0,0,0,1487,1559,1520,1519,15.0329999924,784,13.28125,199.657031149
108.39774394,1.0433943272,-2.0556766987,0.036028482,1.634485364,1.4019042254,5.4176640511,0,0,0,1488,1512,1520,1517,15.0329999924,798,13.96484375,209.933495988
108.496144056,0.7799407244,-1.578106761,-0.0505669601,-2.883838892,-0.8163974881,13.5665044785,0,0,0,1495,1489,1521,1517,15.0410003662,816,14.84375,223.264849186
108.59856987,0.5586537719,-1.142790556,-0.1465219259,1.0290100575,1.4353764057,4.9626598358,0,0,0,1629,1486,1521,1517,15.0410003662,815,14.794921875,222.53042534
108.696514845,0.3752457798,-0.7010811567,-0.1011184454,-1.3152450323,-5.081761837,19.9892807007,0,0,0,1760,1485,1521,1517,15.0369997025,698,9.08203125,136.566501204
108.799195051,0.3894471526,-0.3711977601,-0.094720602,2.2299950123,0.1390417367,3.8089559078,0,0,0,1797,1485,1520,1517,15.0369997025,811,14.599609375,219.534321828
108.89710784,0.5295676589,-0.082012631,-0.1027593166,-1.0703554153,-1.1412495375,8.4742126465,0,0,0,1821,1485,1520,1517,15.0360002518,803,14.208984375,213.64629264
108.995403051,0.6536415815,0.0703638345,-0.1273204237,-2.8319818974,-1.1658588648,14.420378685,0,0,0,1824,1485,1520,1517,15.0360002518,839,15.966796875,240.076761833
109.098448038,0.9111012816,0.2767362297,-0.1209385693,-0.1155708432,-2.8423056603,13.2149505615,0,0,0,1823,1486,1520,1517,15.0229997635,797,13.916015625,209.060299443
109.196331978,1.1249320507,0.4296100438,-0.111580573,-2.1234335899,-2.6320872307,8.5230932236,0,0,0,1820,1485,1520,1517,15.0229997635,812,14.6484375,220.063473098
109.298532009,1.4392597675,0.6301782131,-0.1294562221,-0.665081203,-2.116609335,10.8079280853,0,0,0,1804,1486,1520,1519,15.0170001984,781,13.134765625,197.244777997
109.397017956,1.8042576313,0.827626884,-0.1479016244,-1.736499548,-2.1488862038,14.9602766037,0,0,0,1800,1485,1520,1519,15.0170001984,835,15.771484375,236.840383988
109.49918294,2.2142198086,1.0302699804,-0.1683968157,0.5836322904,-1.2506566048,7.085436821,0,0,0,1788,1486,1520,1517,15.0170001984,823,15.185546875,228.041360435
109.597775936,2.6346311569,1.2444993258,-0.1942264438,-1.4340487719,-2.5243663788,11.5671653748,0,0,0,1761,1485,1520,1517,15.0109996796,723,10.302734375,154.654342402
109.700031042,3.0131430626,1.4331178665,-0.2349659801,0.3406806588,-3.0232512951,15.1993255615,0,0,0,1712,1486,1520,1517,15.0109996796,747,11.474609375,172.245357652
109.798897028,3.2671804428,1.530864954,-0.26850003,-1.1229218245,-1.2654820681,11.2174797058,0,0,0,1630,1489,1520,1517,15.0100002289,748,11.5234375,172.966799513
109.900948048,3.3216609955,1.5581766367,-0.2136608511,0.564653039,-4.4974827766,11.3308782578,0,0,0,1580,1488,1520,1517,15.017999649,699,9.130859375,137.127242889
109.99909687,3.1178326607,1.4479570389,-0.110581547,0.3818543851,3.7575457096,8.0466499329,0,0,0,1561,1488,1520,1519,15.017999649,757,11.962890625,179.658687207
110.097346067,2.7353322506,1.2391039133,-0.0169969946,0.5989253521,-0.4247784019,12.1581468582,0,0,0,1537,1488,1520,1517,15.017999649,696,8.984375,134.927340596
110.199779034,2.2130947113,0.9476736188,-0.0159583781,0.0002402756,-1.3555015326,12.9148263931,0,0,0,1514,1489,1520,1517,15.0329999924,715,9.912109375,149.008740159
110.297935963,1.6572335959,0.6652963758,-0.0958158821,-1.5053335428,1.0614221096,12.6054706573,0,0,0,1489,1489,1520,1517,15.0329999924,719,10.107421875,151.94487297
110.400687933,1.197100997,0.4312223494,-0.1401115656,-1.7693450451,0.6080318093,15.2000665665,0,0,0,1489,1488,1520,1517,15.0500001907,752,11.71875,176.367189735
110.498586893,0.8269280791,0.2699654996,-0.1345979422,-3.8086259365,-2.5766320229,16.2742385864,0,0,0,1488,1488,1520,1517,15.0500001907,822,15.13671875,227.807620074
110.600883007,0.5881216526,0.2186038047,-0.1301185042,2.9131731987,3.4613699913,5.1297717094,0,0,0,1487,1485,1520,1519,15.0590000153,847,16.357421875,246.326416266
110.699396849,0.4002108276,0.2427238673,-0.0554544367,2.9997570515,6.6917920113,2.12972188,0,0,0,1486,1486,1520,1517,15.0590000153,687,8.544921875,128.677978646
110.80210495,0.2504121363,0.2730984092,-0.0110761877,1.8494124413,-0.1081111804,12.0439596176,0,0,0,1486,1485,1520,1517,15.0500001907,808,14.453125,217.519534006
110.900359869,0.1550863981,0.2912544608,0.0333218388,-0.2471740842,-0.4488901794,9.2652187347,0,0,0,1489,1484,1520,1519,15.0500001907,755,11.865234375,178.571779606
111.00225091,0.0696831793,0.2547427714,0.0243110992,-0.5299770236,-0.3864443004,6.6296920776,0,0,0,1493,1454,1520,1519,15.0450000763,791,13.623046875,204.958741274
111.100956917,0.0216855109,0.190797627,0.0299028214,-0.781891942,0.3513857126,9.9292478561,0,0,0,1495,1409,1520,1519,15.0450000763,751,11.669921875,175.5739755
111.202970028,-0.0072954148,0.1722201258,0.0174260009,-0.4593681693,-1.4632637501,14.5510168076,0,0,0,1497,1308,1520,1517,15.0480003357,773,12.744140625,191.773832403
111.301429987,-0.0589761175,0.2319077849,-0.0170276426,1.5245906115,1.2276571989,4.6636295319,0,0,0,1496,1299,1521,1517,15.0480003357,847,16.357421875,246.146489866
111.400174856,-0.1570363939,0.3804968596,0.0109125245,-1.001105547,-1.1493370533,14.3712453842,0,0,0,1496,1296,1520,1519,15.0439996719,789,13.525390625,203.475972125
111.50197506,-0.2660599947,0.5803060532,-0.0132484287,2.0429766178,0.9413471222,3.9621465206,0,0,0,1496,1300,1520,1517,15.0439996719,791,13.623046875,204.945112718
111.600935936,-0.3502214551,0.7491831779,-0.0201983452,-0.0539808199,-3.7103431225,9.434463501,0,0,0,1496,1303,1521,1517,15.0480003357,795,13.818359375,207.938676514
111.702859879,-0.4913961291,1.0357849598,-0.0190481991,-0.6319544315,-0.5330189466,12.0986967087,0,0,0,1495,1306,1520,1519,15.0480003357,808,14.453125,217.490629852
111.801022053,-0.6333689094,1.295314908,-0.0376766399,0.5430719256,-1.7576379776,11.5511007309,0,0,0,1494,1315,1520,1519,15.0410003662,817,14.892578125,223.999273032
111.903728008,-0.7524766922,1.534615159,-0.0706792846,0.989168942,-1.3139412403,10.0360898972,0,0,0,1493,1322,1521,1517,15.0410003662,746,11.42578125,171.855179965
112.002084017,-0.8359404802,1.6642812491,-0.0811744854,-2.1090080738,-0.2636393905,10.6928062439,0,0,0,1492,1340,1520,1519,15.0389995575,816,14.84375,223.235149682
112.104198933,-0.9063773751,1.8012218475,-0.1024945676,1.2045645714,-1.7371909618,7.4805550575,0,0,0,1490,1351,1521,1517,15.0389995575,765,12.353515625,185.784516018
112.202519894,-0.9189286828,1.7930468321,-0.0814603493,1.0860328674,-0.6810705662,8.8821525574,0,0,0,1490,1358,1520,1519,15.0389995575,835,15.771484375,237.187346537
112.304853916,-0.8818510771,1.7217907906,-0.0990923196,-0.2662251294,0.3365862072,5.9378180504,0,0,0,1489,1404,1520,1517,15.0389995575,802,14.16015625,212.954583578
112.403226852,-0.8103554249,1.5586168766,-0.0376424193,-0.5736253858,-1.2459043264,8.4931926727,0,0,0,1489,1429,1520,1517,15.0240001678,824,15.234375,228.881252556
112.50551486,-0.6960394382,1.2924883366,-0.0491141789,1.1104418039,-1.2015131712,6.8185043335,0,0,0,1488,1455,1520,1517,15.0240001678,818,14.94140625,224.479690007
112.603904963,-0.5765396953,1.0519797802,-0.0123156961,-3.2461590767,0.1873081177,11.008731842,0,0,0,1487,1482,1520,1517,15.0170001984,807,14.404296875,216.30932903
112.702478886,-0.4528374672,0.8004507422,-0.0329641849,-0.7767430544,-1.732078433,10.764415741,0,0,0,1487,1489,1520,1517,15.0170001984,795,13.818359375,207.510305476
112.804591894,-0.3417525291,0.620041132,-0.0625185892,1.1767985821,-1.1495643854,5.9475932121,0,0,0,1488,1490,1520,1517,15.015999794,743,11.279296875,169.369919551
112.903002977,-0.2694596052,0.4956181943,-0.0753938109,-0.3672124743,-0.150885269,5.8691153526,0,0,0,1486,1490,1520,1517,15.015999794,781,13.134765625,197.231637919
113.005198002,-0.2141792029,0.4042493105,-0.0964798257,-0.0491350703,-0.0449072532,9.2380752564,0,0,0,1486,1490,1520,1519,15.0290002823,728,10.546875,158.508987352
113.104192972,-0.1886302382,0.3350307643,-0.1192412078,0.922611177,-1.750523448,9.2844963074,0,0,0,1487,1488,1520,1517,15.0290002823,794,13.76953125,206.942289043
113.206080914,-0.1619018018,0.2793826759,-0.1192957312,0.2757862806,-1.5780119896,14.3006744385,0,0,0,1486,1488,1520,1517,15.0279998779,803,14.208984375,213.532615453
113.30449605,-0.113978453,0.1858099252,-0.1427159011,-3.5979166031,0.4435643256,14.1488447189,0,0,0,1483,1489,1521,1517,15.0279998779,769,12.548828125,188.58378753
113.406646967,-0.0730479583,0.135888502,-0.1342472732,-0.8671147227,0.3742362261,9.4728488922,0,0,0,1449,1490,1520,1517,15.0229997635,782,13.18359375,198.057125788
113.504878044,-0.0516306311,0.1119207293,-0.1361634582,0.0313277431,-2.1170725822,17.2493896484,0,0,0,1312,1489,1520,1519,15.0229997635,785,13.330078125,200.257760519
113.607284069,-0.060626585,0.0672297329,-0.1368332207,-0.1778856665,-1.2590873241,15.5295801163,0,0,0,1216,1488,1520,1519,15.0229997635,751,11.669921875,175.317233568
113.705991983,-0.1609379351,0.0093604792,-0.1049378365,-0.6256231666,-2.9823594093,16.2667331696,0,0,0,1136,1488,1520,1519,15.0229997635,771,12.646484375,189.988131775
113.808001995,-0.3554211259,-0.0941384137,-0.0792949274,-0.6158445477,-3.2446529865,15.5459623337,0,0,0,1100,1488,1520,1517,15.0229997635,742,11.23046875,168.715329375
113.906619072,-0.6134080291,-0.2018061429,-0.0717349052,0.3762314618,-0.5775460601,12.1158390045,0,0,0,1098,1489,1520,1517,15.0220003128,782,13.18359375,198.043949436
114.004746914,-0.9366467595,-0.3426025212,-0.0819378495,2.1943285465,-2.9890699387,12.0547437668,0,0,0,1098,1489,1520,1517,15.0220003128,764,12.3046875,184.841019474
114.10700202,-1.3203371763,-0.5210783482,-0.1097783595,-1.1784981489,0.9782087207,5.3938860893,0,0,0,1098,1489,1520,1517,15.0270004272,804,14.2578125,214.252154528
114.205324888,-1.6778753996,-0.6621742249,-0.1163443476,-0.5400515795,-3.7808656693,10.7166862488,0,0,0,1098,1488,1520,1517,15.0270004272,812,14.6484375,220.12207657
114.30792594,-2.0663087368,-0.8210073113,-0.1254508942,2.0207767487,1.2801853418,7.3107824326,0,0,0,1098,1488,1520,1517,15.0270004272,858,16.89453125,253.874128311
114.406061888,-2.497020483,-1.0108569861,-0.0884322003,-1.5760567188,-5.1675825119,19.3285274506,0,0,0,1099,1489,1520,1517,15.0270004272,843,16.162109375,242.868024483
114.508645058,-2.9130828381,-1.2266573906,-0.0701875165,-1.4386278391,-2.8469028473,15.0074777603,0,0,0,1098,1489,1520,1517,15.0200004578,888,18.359375,275.757820905
114.607189894,-3.3302276135,-1.428839922,-0.054904364,-3.4460744858,-4.1179671288,17.5732269287,0,0,0,1102,1489,1520,1519,15.0200004578,880,17.96875,269.890633226
114.709100962,-3.7345442772,-1.6547468901,-0.0290038344,0.806871295,-3.4248039722,10.611905098,0,0,0,1113,1487,1520,1517,15.0050001144,797,13.916015625,208.809816045
114.807500839,-4.1749176979,-1.8934100866,-0.0025658729,-0.164112404,-0.0811729878,9.9612598419,0,0,0,1162,1484,1520,1517,15.0050001144,831,15.576171875,233.720460766
114.909811974,-4.5538291931,-2.10790658,-0.0632399321,-1.7007572651,0.6807515025,10.6899271011,0,0,0,1289,1483,1520,1517,15.0050001144,807,14.404296875,216.136476257
115.008705854,-4.7674045563,-2.2338917255,-0.0970705003,-0.7379099727,0.6597713828,13.4842014313,0,0,0,1434,1485,1520,1517,15.0050001144,819,14.990234375,224.928468512
115.106551886,-4.7863454819,-2.27582407,-0.0224374346,0.5236177444,0.2377866805,9.0950012207,0,0,0,1488,1488,1520,1517,14.9969997406,819,14.990234375,224.808541033
115.208901882,-4.5879034996,-2.2098658085,0.0308347233,-2.081546545,1.7830165625,11.8416805267,0,0,0,1488,1488,1520,1519,14.9969997406,835,15.771484375,236.524947081
115.307105064,-4.2220540047,-2.0590178967,0.0622013509,-0.829618454,-1.1116024256,10.4625759125,0,0,0,1489,1489,1520,1517,14.982000351,883,18.115234375,271.402447765
115.409672976,-3.6792955399,-1.819720149,0.1085763574,0.8794265985,-3.0246393681,13.7792787552,0,0,0,1490,1489,1520,1517,14.982000351,903,19.091796875,286.033307482
115.508058071,-3.064445734,-1.5442200899,0.1066500619,1.2652366161,-1.9023259878,10.2923879623,0,0,0,1490,1489,1520,1517,14.968000412,873,17.626953125,263.840241637
115.61056304,-2.4123258591,-1.2417371273,0.0561371036,-0.2433504909,-0.3972459733,11.4554824829,0,0,0,1489,1488,1520,1517,14.968000412,849,16.455078125,246.299616154
115.708546877,-1.8594682217,-0.9804064631,-0.0094466982,0.7308313251,-1.5751718283,10.1511669159,0,0,0,1489,1488,1520,1519,14.968000412,839,15.966796875,238.991022203
115.811866045,-1.4289175272,-0.776764214,-0.0184850618,-0.2597503066,-2.8386268616,11.8733520508,0,0,0,1489,1488,1520,1517,14.968000412,829,15.478515625,231.682428252
115.909209013,-1.1129179001,-0.6163579822,-0.0266116355,0.797003448,-1.7878587246,9.3007793427,0,0,0,1489,1488,1520,1517,14.9379997253,813,14.697265625,219.547749869
116.011512995,-0.8540235162,-0.4676581323,-0.0374430493,-1.5554351807,-0.9214017987,13.8591375351,0,0,0,1489,1489,1520,1517,14.9379997253,779,13.037109375,194.748336262
116.109922886,-0.6692231297,-0.3663577735,-0.0678624436,-0.3063391149,-0.9242289066,10.5468873978,0,0,0,1489,1489,1518,1519,14.9449996948,768,12.5,186.812496185
116.212324858,-0.5256944895,-0.27973333,-0.1059646904,0.4637453258,-1.9386312962,9.8590097427,0,0,0,1490,1489,1518,1517,14.9449996948,773,12.744140625,190.461177751
116.310832977,-0.4205656052,-0.2155974358,-0.1262741536,1.2808121443,-0.172112152,8.9296779633,0,0,0,1490,1489,1518,1517,14.9589996338,787,13.427734375,200.865473598
116.40939784,-0.3668727875,-0.183252722,-0.1428241432,-1.3357250691,-2.0344138145,8.3616943359,0,0,0,1489,1489,1518,1517,14.9589996338,771,12.646484375,189.178755134
116.5114429,-0.280075103,-0.1096745431,-0.1649064273,-0.5122158527,-0.6175454855,8.0989427567,0,0,0,1489,1489,1518,1517,14.9709997177,967,22.216796875,332.607659744
116.609745979,-0.2149794698,-0.0904768109,-0.0197776407,0.1290414333,1.1972140074,13.6350212097,0,0,0,1489,1489,1568,1517,14.9709997177,688,8.59375,128.657028824
116.712085009,-0.1257315427,-0.0212891735,0.3410698771,-2.0783131123,0.787133038,14.7491092682,0,0,0,1489,1489,1572,1517,14.954000473,856,16.796875,251.180476695
116.810399055,-0.0953642726,0.0146948844,0.4709489942,-3.0666496754,-0.2401944399,13.0632362366,0,0,0,1490,1489,1590,1517,14.954000473,782,13.18359375,197.147467173
116.913347006,-0.0468944348,0.0604458712,0.5678343177,0.6864823699,-1.0437703133,3.5995559692,0,0,0,1489,1489,1588,1519,14.9510002136,770,12.59765625,188.347561285
117.01118207,-0.0394122526,0.0710599273,0.5400999188,0.423312813,-0.904445529,11.3809185028,0,0,0,1489,1489,1573,1517,14.9510002136,668,7.6171875,113.88457194
117.113677025,-0.0088595524,0.0815912709,0.3838354647,-0.3978782296,-1.3189189434,9.497959137,0,0,0,1489,1488,1572,1519,14.9729995728,769,12.548828125,187.893598155
117.212105989,0.0214470308,0.0983282998,0.2715251148,0.8568899632,-1.9384438992,8.2282533646,0,0,0,1489,1488,1560,1517,14.9729995728,723,10.302734375,154.262837396
117.314182043,0.0430483632,0.1202205345,0.0902692005,-1.0030360222,0.2853921652,5.9588828087,0,0,0,1489,1488,1549,1519,14.9899997711,775,12.841796875,192.498532217
117.412452936,0.0610855743,0.1409105659,0.0556798503,2.0518629551,1.1772665978,4.4245443344,0,0,0,1489,1488,1547,1519,14.9899997711,768,12.5,187.374997139
117.514930964,0.073815085,0.1478980929,0.0069601908,0.9899891615,2.4453327656,7.477889061,0,0,0,1489,1488,1548,1519,14.9940004349,783,13.232421875,198.406939349
117.613103867,0.07543201,0.1287964582,0.0199818984,0.0949614421,-1.5462803841,9.6550779343,0,0,0,1489,1488,1548,1519,14.9940004349,792,13.671875,204.996099696
117.711658955,0.0812581927,0.1269368082,0.0249492768,-0.9867600203,0.4659944773,5.3506159782,0,0,0,1490,1488,1548,1517,14.9949998856,697,9.033203125,135.452879826
117.813840866,0.0555219501,0.1328536272,0.0352457725,-1.9253565073,0.4097070694,8.1689634323,0,0,0,1476,1483,1548,1517,14.9949998856,803,14.208984375,213.063719078
117.913076878,0.0143310297,0.1224577799,0.004352428,0.7247713804,0.7522328496,5.7303876877,0,0,0,1348,1472,1548,1519,14.998000145,772,12.6953125,190.404298716
118.014729977,-0.1119849086,0.0471977927,0.0141917448,-1.6389003992,-2.4590549469,16.0679950714,0,0,0,1291,1462,1548,1517,14.998000145,759,12.060546875,180.88408378
118.112874985,-0.2610052228,-0.046058692,0.0450824387,-0.5333524942,-1.2862329483,12.7599964142,0,0,0,1238,1454,1548,1517,14.998000145,773,12.744140625,191.136622942
118.215205908,-0.5563956499,-0.1770680994,0.050873708,-0.8333132863,0.8079490066,8.6387138367,0,0,0,1239,1453,1549,1517,14.998000145,809,14.501953125,217.500295072
118.314116001,-0.9277783632,-0.3332175016,0.04865532,-0.6418856978,1.1436436176,10.7498540878,0,0,0,1246,1455,1548,1517,15.0010004044,800,14.0625,210.951568187
118.416053057,-1.3200535774,-0.4603457749,0.049494639,1.4633609057,-1.5074864626,9.7292766571,0,0,0,1302,1458,1548,1517,15.0010004044,772,12.6953125,190.442387946
118.514457941,-1.6932758093,-0.6285003424,0.0138071533,0.5209633708,-1.7328658104,5.2211532593,0,0,0,1391,1484,1548,1517,15.0069999695,702,9.27734375,139.225097373
118.61666894,-1.9452215433,-0.739563942,-0.027866846,-2.6154558659,-2.8052706718,23.5847644806,0,0,0,1489,1487,1548,1517,15.0069999695,813,14.697265625,220.561864786
118.714830875,-2.003661871,-0.7914896011,-0.0305359624,-0.5325638652,-1.341037035,8.790266037,0,0,0,1492,1489,1548,1517,15.0059995651,895,18.701171875,280.629777023
118.817446947,-1.8817236424,-0.7558888197,0.063845098,0.7646240592,0.3792232573,13.9492292404,0,0,0,1490,1490,1548,1518,15.0059995651,837,15.869140625,238.132317317
118.915632963,-1.716911912,-0.6856746078,0.0434109941,0.0528572798,-0.8845832348,10.5243463516,0,0,0,1490,1490,1548,1518,15.0059995651,813,14.697265625,220.547161577
119.014148951,-1.3984026909,-0.5240425467,0.0347027816,-0.494345665,0.3218448758,9.1877174377,0,0,0,1490,1490,1548,1518,14.9940004349,789,13.525390625,202.799712913
119.116178036,-1.1910697222,-0.4316959381,0.0061963443,-0.3086855412,-1.2940529585,9.6460905075,0,0,0,1490,1490,1548,1516,14.9940004349,847,16.357421875,245.263190708
119.214562893,-0.8536582589,-0.2733960748,-0.0016417075,-1.6848837137,-0.5964046717,11.5069255829,0,0,0,1490,1490,1548,1516,14.9899997711,817,14.892578125,223.239742685
119.316941977,-0.6590065956,-0.1918294579,-0.0115231723,-1.0810266733,-2.497761488,14.1642475128,0,0,0,1490,1490,1548,1515,14.9899997711,780,13.0859375,196.15820013
119.41524291,-0.4425422847,-0.1243441179,0.0119833043,-1.8085837364,-0.2727342248,12.5524454117,0,0,0,1490,1490,1547,1445,14.9940004349,803,14.208984375,213.049517898
119.517690897,-0.3494735658,-0.1008087024,0.0174861159,1.7725644112,-0.1429644525,7.3759145737,0,0,0,1490,1488,1547,1428,14.9940004349,759,12.060546875,180.835845089
119.61599493,-0.242010206,-0.0629653856,0.0449369103,-1.287984252,-3.8226025105,7.6185398102,0,0,0,1490,1488,1532,1385,14.998000145,751,11.669921875,175.025489973
119.718286037,-0.1694302112,-0.0090222992,0.0021761614,-1.1382938623,-0.9725444913,9.4188737869,0,0,0,1489,1490,1526,1408,14.998000145,767,12.451171875,186.742677587
119.81715107,-0.0882626548,0.0261261426,-0.0327442028,-0.3100300431,-0.8484277725,10.9283742905,0,0,0,1489,1490,1543,1518,14.9989995956,792,13.671875,205.064447596
119.919570923,-0.028310366,0.039105501,0.0138025042,0.5630403757,-1.3280316591,5.0660486221,0,0,0,1490,1490,1543,1517,14.9989995956,737,10.986328125,164.783931104
120.017307043,0.0108424388,0.0147728464,0.0070479065,-0.9228571653,-1.9226324558,14.4250431061,0,0,0,1490,1488,1543,1515,14.9960002899,773,12.744140625,191.111136507
120.116404057,0.0513592958,0.0127026336,0.0011910666,-4.0301132202,-3.3232247829,18.2614841461,0,0,0,1330,1489,1543,1516,14.9960002899,687,8.544921875,128.139650915
120.218061924,0.0437476672,-0.0038096742,-0.0227290243,-0.4725296497,-1.229673028,10.8178424835,0,0,0,1265,1488,1543,1515,15,797,13.916015625,208.740234375
120.316441059,-0.0891876519,-0.0364367738,0.0209169239,-0.7062109709,0.3768945932,8.3904476166,0,0,0,1214,1486,1544,1517,15,797,13.916015625,208.740234375
120.418791056,-0.3426966667,-0.0680364817,0.050206352,0.3574194908,0.5889546871,5.8122777939,0,0,0,1202,1486,1543,1515,14.9989995956,779,13.037109375,195.543598243
120.517283916,-0.7037488222,-0.1090568155,0.1146180779,1.1943587065,-2.2942039967,10.5226793289,0,0,0,1202,1485,1543,1517,14.9989995956,762,12.20703125,183.093256782
120.619652033,-1.1293267012,-0.1655198038,0.1190421432,0.9243274331,-0.8581391573,12.9575204849,0,0,0,1216,1484,1543,1517,15.0039997101,772,12.6953125,190.48046507
120.71782589,-1.5838725567,-0.2341831476,0.0968686268,-0.6635221839,0.4463035166,8.9641132355,0,0,0,1220,1484,1543,1517,15.0039997101,775,12.841796875,192.67831659
120.82008791,-2.0761027336,-0.2950013578,0.0859247893,2.3650574684,-1.6389684677,8.8278026581,0,0,0,1225,1484,1543,1515,15.0120000839,801,14.111328125,211.839258996
120.918575048,-2.5412406921,-0.3427392244,0.0705965906,0.2727463245,2.3118958473,6.580163002,0,0,0,1243,1484,1544,1516,15.0120000839,741,11.181640625,167.858790001
121.021002054,-2.9881923199,-0.3550245464,0.0640906394,-2.03048563,-3.2479102612,13.1335334778,0,0,0,1246,1484,1543,1515,15.0080003738,813,14.697265625,220.576567994
121.119241953,-3.3957550526,-0.4045647085,0.0978383794,-0.5466189981,1.600471735,13.2098789215,0,0,0,1269,1483,1544,1517,15.0080003738,779,13.037109375,195.660942373
121.221705914,-3.6260416508,-0.4634223878,0.1017629877,1.152607441,-0.7742399573,6.3992476463,0,0,0,1291,1485,1543,1517,14.9940004349,791,13.623046875,204.263970768
121.319934845,-3.7131786346,-0.4986533225,0.1414808631,-2.8767893314,-1.7645689249,10.9603557587,0,0,0,1322,1484,1543,1517,14.9940004349,887,18.310546875,274.548347807
121.418165922,-3.6395168304,-0.490880847,0.1547804475,-1.590801239,0.3128885925,9.9082193375,0,0,0,1348,1484,1543,1515,14.9879999161,850,16.50390625,247.36054549
121.520925999,-3.4092860222,-0.476221621,0.1746564209,-0.1676408052,-1.5949676037,9.2005729675,0,0,0,1376,1484,1543,1517,14.9879999161,848,16.40625,245.896873624
121.619462013,-3.0600054264,-0.4546604455,0.1639885008,1.0069741011,-1.6573103666,11.0661621094,0,0,0,1398,1484,1543,1517,14.9849996567,896,18.75,280.968743563
121.721338987,-2.6417872906,-0.4311326444,0.1555836946,1.5529527664,1.5729774237,9.2972259522,0,0,0,1442,1484,1543,1517,14.9849996567,923,20.068359375,300.724358345
121.819545031,-2.1513345242,-0.374089241,0.2028554082,0.8224839568,1.340156436,10.7913856506,0,0,0,1473,1484,1543,1517,14.9849996567,872,17.578125,263.40819709
121.922039032,-1.6889070272,-0.308879137,0.197067678,-1.2204580307,-0.5313068628,14.7173242569,0,0,0,1488,1488,1543,1517,14.9849996567,844,16.2109375,242.920892872
122.020850897,-1.3034958839,-0.2360468358,0.1728174537,1.7707028389,0.2171384394,10.404460907,0,0,0,1489,1487,1543,1515,14.9549999237,896,18.75,280.406248569
122.122581959,-0.9587792754,-0.1802081168,0.186793685,-0.3704662919,-1.1460185051,10.7020664215,0,0,0,1490,1489,1543,1517,14.9549999237,831,15.576171875,232.941649202
122.221394062,-0.7352102399,-0.1230384484,0.2129391581,-1.2814773321,0.8736819029,9.4690294266,0,0,0,1489,1489,1543,1515,14.9510002136,816,14.84375,221.928909421
122.323806047,-0.5566825271,-0.0628102198,0.1927973628,-1.1076629162,-1.297922492,13.4140748978,0,0,0,1489,1489,1542,1517,14.9510002136,779,13.037109375,194.91782505
122.421870947,-0.4450120926,-0.0319060571,0.2024990469,-1.2729383707,-1.2272006273,11.7606573105,0,0,0,1489,1489,1542,1517,14.954000473,779,13.037109375,194.95693976
122.524080038,-0.2568548918,0.0325711779,0.137765944,0.1879612654,0.9737101793,4.4049468041,0,0,0,1490,1487,1542,1516,14.954000473,775,12.841796875,192.036236543
122.622547865,-0.1596794873,0.0582212768,0.1211917996,-1.8639932871,-0.1929153204,11.0256080627,0,0,0,1494,1489,1542,1517,14.9720001221,744,11.328125,169.604688883
122.720891953,-0.0408545472,0.106402345,0.1055317447,2.1991641522,-1.9184309244,12.1443157196,0,0,0,1554,1485,1542,1517,14.9720001221,807,14.404296875,215.661134571
122.823154926,0.0729570016,0.1030628085,0.0301304962,0.9684820175,0.9124299288,8.5058994293,0,0,0,1677,1486,1542,1516,14.982000351,803,14.208984375,212.879008894
122.921733856,0.2124827057,0.0486527644,0.0056763776,-0.870384872,-1.0767300129,12.4160318375,0,0,0,1750,1484,1542,1514,14.982000351,831,15.576171875,233.362212498
123.024098873,0.4531919956,-0.0359428115,0.0084171593,0.291023016,-0.4762926102,10.938627243,0,0,0,1761,1484,1542,1516,14.9829998016,840,16.015625,239.962106197
123.122380972,0.6373237371,-0.0778680667,0.0296385214,0.5489267707,-2.748336792,11.0623245239,0,0,0,1760,1486,1542,1514,14.9829998016,783,13.232421875,198.261374328
123.224714994,0.9407238364,-0.125813663,0.0113327987,-0.8105674982,-1.8811534643,10.9435586929,0,0,0,1747,1486,1542,1516,14.9750003815,903,19.091796875,285.899665487
123.322821856,1.4242010117,-0.1311244965,-0.0183654912,1.1121970415,-0.9311630726,10.5571870804,0,0,0,1736,1486,1542,1516,14.9750003815,885,18.212890625,272.738044058
123.425047874,1.8109900951,-0.100015223,0.0106060337,-1.5468171835,-1.0934758186,9.9030990601,0,0,0,1720,1484,1542,1516,14.9610004425,856,16.796875,251.298054308
123.524111986,2.0463879108,-0.0592514053,0.0114791282,-0.7967324853,-0.7174036503,11.8373937607,0,0,0,1714,1486,1542,1516,14.9610004425,816,14.84375,222.077350318
123.626054049,2.4141259193,0.0276114717,0.0114314603,0.2127190828,-2.6351606846,9.6936168671,0,0,0,1702,1486,1542,1516,14.9479999542,816,14.84375,221.88437432
123.724905968,2.6948699951,0.1421218514,-0.0150757004,-0.2659696639,-0.4807399213,6.6589155197,0,0,0,1690,1485,1542,1516,14.9479999542,773,12.744140625,190.499413479
123.826555014,2.9502601624,0.2483900338,0.0038104507,-0.5781950951,-1.7947633266,10.6992645264,0,0,0,1680,1486,1542,1516,14.9610004425,735,10.888671875,162.90542474
123.924914837,2.9982373714,0.2755320668,0.0327507481,-1.0873719454,-1.5410239697,6.6819052696,0,0,0,1667,1486,1543,1514,14.9610004425,729,10.595703125,158.522319142
124.023355007,3.0076537132,0.2858506143,0.0528991036,0.3246239722,0.5473968387,8.6630840302,0,0,0,1657,1486,1543,1514,14.9750003815,755,11.865234375,177.681889292
124.125709057,2.9653823376,0.3025253415,0.0347655378,0.9413639903,-3.392800808,9.3607683182,0,0,0,1625,1490,1542,1516,14.9750003815,808,14.453125,216.435552389
124.224995852,2.8958923817,0.3125772476,1.18606258187E-05,0.9905981421,-2.2395904064,6.3458571434,0,0,0,1600,1489,1542,1514,14.9879999161,818,14.94140625,223.941795621
124.326318979,2.7179970741,0.3139491677,0.0473960005,-2.9975206852,-2.5274779797,17.5374336243,0,0,0,1540,1487,1542,1516,14.9879999161,787,13.427734375,201.254881686
124.424664974,2.4123075008,0.2888260782,0.1133999228,1.6831313372,-0.3904478848,8.8653860092,0,0,0,1530,1483,1542,1516,14.9879999161,679,8.154296875,122.216600878
124.527077913,1.9735221863,0.246779561,0.1741700619,0.3823188841,2.7446744442,5.7783184052,0,0,0,1500,1436,1542,1516,14.9940004349,712,9.765625,146.425785497
124.625524044,1.5264425278,0.2015900165,0.1544456333,1.6875040531,0.4522743821,7.0360684395,0,0,0,1492,1399,1543,1514,14.9940004349,715,9.912109375,148.62217228
124.727674007,1.0860099793,0.2468166947,0.1422655135,0.1119619086,-1.183955431,9.0844974518,0,0,0,1492,1376,1542,1514,15.0069999695,785,13.330078125,200.044482015
124.826415062,0.7598023415,0.3930881023,0.0824257359,1.2335724831,2.6253218651,10.5422687531,0,0,0,1490,1358,1542,1514,15.0069999695,816,14.84375,222.760155797
124.928745031,0.4586151838,0.6614874601,0.1048629135,1.6226488352,0.7494300604,4.1968169212,0,0,0,1490,1356,1542,1516,15.0170001984,793,13.720703125,206.04380155
125.027504921,0.2745024264,0.8916578293,0.0255611427,0.5692213774,0.3565802276,11.3770942688,0,0,0,1490,1360,1542,1514,15.0170001984,851,16.552734375,248.572415393
125.125547886,0.1425369233,1.1148372889,0.0491148494,0.1476596296,0.9956590533,9.7821426392,0,0,0,1491,1366,1542,1514,15.0129995346,777,12.939453125,194.260003744
125.227287054,0.0728159472,1.2508820295,0.0783744752,1.6784778833,-2.2723362446,8.0628557205,0,0,0,1490,1389,1542,1516,15.0129995346,800,14.0625,211.120305955
125.326231956,0.0208017603,1.2987086773,0.0923451334,-0.0443800949,0.6919558048,9.4125118256,0,0,0,1490,1412,1542,1514,15.0030002594,866,17.28515625,259.329203703
125.427950859,0.0092928363,1.2715803385,0.0802912712,1.5239416361,-0.9479421377,10.7698478699,0,0,0,1490,1430,1543,1514,15.0030002594,729,10.595703125,158.967336733
125.526527882,0.0143354712,1.1649018526,0.130889222,-1.5373257399,-1.3567692041,11.8220415115,0,0,0,1489,1469,1542,1516,14.9989995956,813,14.697265625,220.444281166
125.629364967,0.0318765417,0.9821696877,0.1410512328,-1.0115790367,-1.6180776358,8.6648368835,0,0,0,1488,1489,1543,1514,14.9989995956,775,12.841796875,192.614106135
125.727099895,0.0538780428,0.7791537642,0.1178168803,-1.521150589,-1.321502924,8.2311830521,0,0,0,1487,1490,1543,1514,14.9899997711,795,13.818359375,207.137203868
125.829504013,0.0628744066,0.6073684096,0.1118194237,-0.2558460832,-1.1114032269,13.5393829346,0,0,0,1487,1490,1542,1514,14.9899997711,786,13.37890625,200.549801625
125.927827835,0.0692179352,0.4585219026,0.1083382145,1.1727284193,1.9606976509,4.5257554054,0,0,0,1487,1490,1543,1514,14.9829998016,794,13.76953125,206.308883987
126.030058861,0.0629544705,0.3742644191,0.0935977101,0.0104811899,-0.1419487298,11.3460359573,0,0,0,1488,1490,1542,1514,14.9829998016,778,12.98828125,194.603415392
126.128540039,0.0490223467,0.2917767763,0.0570777096,1.2368969917,-3.9539380074,8.3083896637,0,0,0,1495,1492,1542,1514,14.998000145,803,14.208984375,213.106349717
126.230845928,0.0478834659,0.2237458974,0.0905905068,-0.2048376203,-1.849537611,16.2418861389,0,0,0,1494,1492,1543,1514,14.998000145,805,14.306640625,214.570998168
126.329154968,0.0455913022,0.1365590096,0.041071482,1.1944445372,-0.1170175448,11.3134460449,0,0,0,1493,1491,1542,1516,14.998000145,786,13.37890625,200.656837877
126.427412987,0.048232615,0.0398459546,0.0184379593,0.6877362132,0.1366249621,9.3728094101,0,0,0,1486,1488,1542,1514,14.998000145,803,14.208984375,213.106349717
126.529772997,0.0602340363,-0.0523843542,0.0059924349,-1.1222699881,0.1449117363,8.741350174,0,0,0,1492,1486,1542,1514,15.0039997101,839,15.966796875,239.565815684
126.628227949,0.0699711442,-0.111968413,0.0205204245,0.30952245,-1.2842786312,9.7145853043,0,0,0,1541,1466,1542,1516,15.0039997101,815,14.794921875,221.983003523
126.731015921,0.0882747546,-0.1734926701,0.023113884,0.0008317875,-2.0060567856,12.4097299576,0,0,0,1615,1435,1542,1516,15.0039997101,733,10.791015625,161.908395309
126.828824043,0.1503732353,-0.1974799186,0.0373445228,-0.7813301682,-1.0718708038,9.526591301,0,0,0,1670,1423,1542,1516,15.0039997101,835,15.771484375,236.63534699
126.932034969,0.288943857,-0.1975753158,0.0648930147,0.5530905724,-1.0119156838,10.4069509506,0,0,0,1705,1422,1543,1514,14.9879999161,823,15.185546875,227.600975288
127.029643059,0.4883292913,-0.1608041525,0.045146782,0.7745040655,-3.0870900154,8.1763477325,0,0,0,1710,1423,1542,1516,14.9879999161,841,16.064453125,240.77402209
127.132521868,0.7842516899,-0.0945776254,0.065847598,2.1578974724,-0.6438692212,9.5607185364,0,0,0,1708,1421,1542,1514,14.9790000916,848,16.40625,245.749220253
127.230280876,1.1410646439,0.01521888,0.0628541484,0.0228260551,-0.3960535526,10.3709955215,0,0,0,1700,1417,1542,1516,14.9790000916,878,17.87109375,267.691114918
127.332571983,1.5134234428,0.1345214397,0.0619463921,-1.840772748,1.1796094179,12.4493370056,0,0,0,1695,1416,1542,1514,14.9659996033,886,18.26171875,273.304875568
127.431038857,1.6322244406,0.1891303658,0.0529186912,0.7269251943,-2.3311817646,10.4651975632,0,0,0,1688,1405,1542,1516,14.9659996033,815,14.794921875,221.420794912
127.533150911,2.1776623726,0.5588763952,0.0139456522,-0.5809091926,-1.167842865,10.8255176544,0,0,0,1638,1363,1542,1516,14.9659996033,803,14.208984375,212.65165452
127.63161397,2.2460811138,0.6540634036,0.0068392372,0.6183742881,-0.3517590761,10.0559797287,0,0,0,1636,1359,1542,1514,14.9659996033,853,16.650390625,249.189739489
127.730062962,2.3070316315,1.0906904936,0.0148157682,0.1592326313,-1.5215997696,13.5198154449,0,0,0,1600,1383,1542,1516,14.9659996033,792,13.671875,204.613275826
127.832290888,2.2209715843,1.2440359592,0.0055603418,-0.5904741287,-0.3033261597,11.7967891693,0,0,0,1580,1408,1542,1517,14.9659996033,775,12.841796875,192.190326937
127.93074584,2.0356564522,1.3730294704,0.0424886271,1.1159255505,-0.03956718,12.261267662,0,0,0,1550,1431,1542,1514,14.9659996033,756,11.9140625,178.305854649
128.033222914,1.7389483452,1.307605505,0.1025803164,0.9233754277,-1.5361757278,11.5936489105,0,0,0,1490,1484,1542,1514,14.9659996033,714,9.86328125,147.613863275
128.131584883,1.3422902823,1.0456266403,0.1519893855,3.4516143799,-2.7638711929,8.4750547409,0,0,0,1489,1488,1542,1514,14.9659996033,698,9.08203125,135.921676085
128.234171867,1.0182988644,0.7648193836,0.0754629746,0.7884975076,1.5517667532,8.5187778473,0,0,0,1487,1488,1542,1516,14.9659996033,781,13.134765625,196.574897133
128.332192898,0.754594624,0.5228841901,-0.0236395206,0.323479563,-2.1255636215,12.1967172623,0,0,0,1488,1488,1542,1514,14.9659996033,864,17.1875,257.228118182
128.434524059,0.5909938812,0.3349380791,-0.0760729164,0.1151559651,-0.781383276,10.4480733871,0,0,0,1486,1488,1542,1517,14.9750003815,817,14.892578125,223.016363103
128.532794952,0.4432189465,0.1896602511,-0.0612446591,0.7586774826,-0.2945594192,8.832072258,0,0,0,1487,1489,1542,1514,14.9750003815,806,14.35546875,214.973150008
128.634925842,0.3376342058,0.1143041179,-0.0233079046,0.8151056767,-1.3612340689,11.9018545151,0,0,0,1484,1490,1542,1516,14.9739999771,799,14.013671875,209.840722335
128.733473063,0.2315987647,0.0610388033,-0.0046925233,-0.0376158915,-1.6197276115,11.9532003403,0,0,0,1355,1535,1542,1514,14.9739999771,820,15.0390625,225.194921531
128.835692883,0.1753693074,0.0368231349,-0.0084459633,-0.120295912,-1.5729570389,10.2651281357,0,0,0,1298,1563,1542,1514,14.9659996033,706,9.47265625,141.76776968
128.93404007,-0.193131119,-0.0608990788,-0.0059423121,-1.1699995995,-1.2004674673,11.39320755,0,0,0,1265,1567,1542,1514,14.9659996033,863,17.138671875,256.497356482
129.032667875,-0.4481911659,-0.1303112656,-0.012071142,-0.710134387,-1.5824781656,8.2523736954,0,0,0,1257,1569,1542,1516,14.9619998932,823,15.185546875,227.206150722
129.135160923,-0.9825965166,-0.2951294482,-0.0579026826,0.5503209233,-1.3779227734,11.2501459122,0,0,0,1255,1567,1542,1517,14.9619998932,877,17.822265625,266.656736378
129.23327589,-1.4081830978,-0.4224331677,-0.0656145364,-0.0257067923,1.7023018599,9.0150556564,0,0,0,1255,1565,1542,1516,14.9569997787,914,19.62890625,293.589546437
129.335624933,-1.8498460054,-0.5663037896,-0.0711626709,-0.6178652048,2.0756189823,9.5438013077,0,0,0,1280,1556,1542,1516,14.9569997787,776,12.890625,192.805075272
129.433853865,-2.2598700523,-0.690289259,-0.1053510606,-0.6309820414,-1.0432204008,8.0225009918,0,0,0,1282,1561,1542,1516,14.9420003891,862,17.08984375,255.356451962
129.536166906,-2.466855526,-0.7478018403,-0.1170602366,0.9126400948,-1.2728680372,11.0682516098,0,0,0,1309,1543,1542,1514,14.9420003891,801,14.111328125,210.851470334
129.634757042,-2.7003107071,-0.7964091897,-0.1152381301,-0.5665848851,1.0937316418,8.4340639114,0,0,0,1346,1524,1542,1516,14.9320001602,855,16.748046875,250.081838621
129.736863852,-2.7579374313,-0.7622205019,-0.130399093,-0.1924495995,-1.591778636,7.7338528633,0,0,0,1395,1500,1542,1516,14.9320001602,856,16.796875,250.810940191
129.835383892,-2.567098856,-0.6685833931,-0.097323969,0.1409200281,-1.6717547178,12.1269111633,0,0,0,1486,1485,1542,1514,14.9320001602,869,17.431640625,260.289260605
129.937660933,-2.3323822022,-0.5857674479,-0.0833532885,-1.2566076517,-0.3368817568,11.4140996933,0,0,0,1488,1485,1542,1514,14.9320001602,836,15.8203125,236.228908784
130.035820007,-1.9037542343,-0.4630032182,-0.1112713143,0.259911269,-0.2141243219,11.0514812469,0,0,0,1488,1485,1542,1514,14.9169998169,839,15.966796875,238.176706061
130.134155989,-1.4530926943,-0.3472827077,-0.1654950827,-0.497990936,-0.9800270796,11.8069543839,0,0,0,1490,1486,1542,1514,14.9169998169,863,17.138671875,255.657565221
130.236597061,-1.1016170979,-0.255379647,-0.1774571538,-0.2523221076,-1.1188355684,8.3903865814,0,0,0,1490,1484,1542,1514,14.9110002518,831,15.576171875,232.25630275
130.334851027,-0.8113772869,-0.1843207628,-0.1590095013,-0.5513247848,-1.9319164753,12.9164218903,0,0,0,1490,1485,1542,1514,14.9110002518,803,14.208984375,211.870169593
130.437156916,-0.5973222852,-0.1405092627,-0.1341307759,0.6219317913,-1.3522013426,9.1530561447,0,0,0,1403,1460,1542,1516,14.904999733,807,14.404296875,214.696041076
130.535544872,-0.458214432,-0.1141654477,-0.0951429829,0.07676927,-0.9823099375,10.0272932053,0,0,0,1295,1462,1543,1514,14.904999733,823,15.185546875,226.340572117
130.638483047,-0.4100344479,-0.1050719246,-0.0754050538,0.8097436428,-0.5820476413,9.4311971664,0,0,0,1282,1462,1542,1516,14.904999733,810,14.55078125,216.879390646
130.736288071,-0.4743946493,-0.1124048904,-0.0625860691,-0.7931210995,-1.7095332146,11.5348043442,0,0,0,1229,1461,1542,1516,14.904999733,810,14.55078125,216.879390646
130.838989019,-0.63408494,-0.1322953701,-0.0597930588,2.1291575432,-1.6463308334,9.6109828949,0,0,0,1213,1460,1542,1514,14.904999733,795,13.818359375,205.962642795
130.937191963,-0.8713545799,-0.1496444345,-0.0615992807,2.5199797154,-0.4960484803,6.9278240204,0,0,0,1213,1465,1542,1514,14.904999733,755,11.865234375,176.851315191
131.039433002,-1.1721117497,-0.1946207285,-0.0912533849,0.7187102437,-1.2834500074,5.1941280365,0,0,0,1214,1467,1542,1514,14.904999733,846,16.30859375,243.079585489
131.137901068,-1.5268976688,-0.2618384063,-0.0980368629,0.5398482084,-1.0007909536,13.7366714478,0,0,0,1214,1468,1542,1517,14.904999733,768,12.5,186.312496662
131.240062952,-1.9224296808,-0.3264041543,-0.1376143843,0.9907040596,-1.4313964844,6.6545543671,0,0,0,1224,1468,1542,1516,14.9110002518,862,17.08984375,254.826664459
131.338479042,-2.0513730049,-0.3484398425,-0.1254356503,-0.4497015476,-1.065793395,9.3318033218,0,0,0,1231,1465,1542,1516,14.9110002518,847,16.357421875,243.905521697
131.436987877,-2.5004279614,-0.4180407822,-0.1450671703,0.5243110061,0.8803402781,9.542963028,0,0,0,1291,1466,1542,1514,14.9110002518,847,16.357421875,243.905521697
131.539438963,-2.927880764,-0.4846231937,-0.205912441,1.0231570005,-0.944431603,6.9850673676,0,0,0,1476,1488,1542,1514,14.904999733,828,15.4296875,229.979488068
131.63767004,-3.0345392227,-0.4923620224,-0.2180161178,0.6114108562,-0.5002425909,11.9456043243,0,0,0,1488,1488,1542,1514,14.904999733,853,16.650390625,248.17406782
131.739768982,-2.9207596779,-0.4564804733,-0.1505650729,-0.4149560332,0.546351254,10.6500911713,0,0,0,1489,1488,1542,1516,14.9010000229,848,16.40625,244.469531626
131.838338852,-2.7096025944,-0.4056000412,-0.1262101978,0.2250640839,-1.2356262207,10.0772924423,0,0,0,1489,1488,1542,1514,14.9010000229,806,14.35546875,213.910840172
131.940759897,-2.2495758534,-0.3073660433,-0.0940008387,0.5783714056,-2.2544722557,8.47935009,0,0,0,1523,1486,1542,1516,14.8950004578,844,16.2109375,241.461921484
132.039227009,-1.7591161728,-0.223561734,-0.1280139536,1.1915581226,-0.0348145887,10.3508033752,0,0,0,1584,1485,1543,1514,14.8950004578,944,21.09375,314.191415907
132.141171932,-1.2649993897,-0.1412247121,-0.0999109,0.653046906,-1.031593442,14.9990816116,0,0,0,1635,1485,1542,1516,14.8859996796,912,19.53125,290.742181242
132.240120888,-0.7069454193,-0.0497596599,-0.029928593,-0.0016293343,-1.0707392693,11.5940465927,0,0,0,1681,1484,1542,1516,14.8859996796,956,21.6796875,322.723821179
132.342028856,-0.2967023849,0.0051885094,-0.0033058627,-0.2388142049,2.9040062428,11.8681306839,0,0,0,1702,1483,1542,1516,14.8620004654,955,21.630859375,321.477842098
132.440037966,0.5942127109,0.1541284919,0.0104688555,0.7753405571,1.009301424,10.1654396057,0,0,0,1720,1483,1542,1516,14.8620004654,941,20.947265625,311.318271468
132.542993069,1.2955831289,0.267048955,-0.0302496459,0.834880352,1.0139087439,10.2204360962,0,0,0,1705,1483,1542,1516,14.8620004654,903,19.091796875,283.742294042
132.64120388,1.8464363813,0.3563111126,-0.0940604433,-0.5369135737,-2.3299453259,12.0525093079,0,0,0,1685,1483,1542,1514,14.8620004654,899,18.896484375,280.839559576
132.739789963,2.2721521854,0.4264820218,-0.0829041526,-1.9768422842,-1.9098448753,12.3143482208,0,0,0,1647,1484,1542,1516,14.8280000687,832,15.625,231.687501073
132.841462851,2.4407629967,0.4648019373,-0.0383519456,0.3849831522,-1.9323775768,6.8257608414,0,0,0,1644,1484,1543,1514,14.8280000687,835,15.771484375,233.859571396
132.939981937,2.5317218304,0.4982522726,0.0215770658,0.0747800469,-1.6289768219,7.6289067268,0,0,0,1635,1484,1542,1514,14.829000473,678,8.10546875,120.195999928
133.042238951,2.5026757717,0.484847337,0.0189136826,1.1822545528,-3.1159934998,9.6666173935,0,0,0,1630,1485,1542,1516,14.829000473,800,14.0625,208.532819152
133.140886068,2.4145629406,0.4561191201,-0.0149668278,-0.3734975159,-0.8366239071,5.6379642487,0,0,0,1595,1484,1542,1514,14.843000412,777,12.939453125,192.060308065
133.242964029,2.2729742527,0.4160013497,-0.0650862083,0.3586942256,-0.3046985865,10.825387001,0,0,0,1500,1488,1542,1516,14.843000412,781,13.134765625,194.959331583
133.341310024,2.0260863304,0.3569866717,-0.0722768903,-0.4337797761,-1.3189402819,12.5760622025,0,0,0,1487,1489,1542,1514,14.8620004654,806,14.35546875,213.350983244
133.443907976,1.7124783993,0.2906676233,-0.1253355145,0.1114931554,-0.3455537856,14.1248636246,0,0,0,1486,1488,1542,1516,14.8620004654,764,12.3046875,182.872271352
133.542042971,1.3365736008,0.2179804295,-0.1796987951,-0.3037548065,-2.0377602577,17.6245880127,0,0,0,1487,1489,1542,1520,14.8620004654,781,13.134765625,195.208892832
133.644271851,1.0413128138,0.1643570513,-0.2170163691,-1.9704158306,-0.5136464238,9.4578685761,0,0,0,1487,1489,1531,1520,14.8620004654,860,16.9921875,252.537898533
133.742768049,0.806368947,0.1144866422,-0.2290282249,1.5070930719,-0.1860942692,7.8596549034,0,0,0,1486,1488,1516,1541,14.8850002289,755,11.865234375,176.614016388
133.84564805,0.62998873,0.0705110431,-0.2308385968,1.2045754194,-1.8691684008,9.8852500916,0,0,0,1486,1488,1506,1571,14.8850002289,803,14.208984375,211.500735674
133.943850994,0.5025169253,0.0383758247,-0.2200010568,-0.590007782,-0.3387305141,10.6945886612,0,0,0,1487,1489,1499,1592,14.8819999695,807,14.404296875,214.364745654
134.041975975,0.4299049079,0.0211282242,-0.191238299,0.5812068582,0.1399220228,8.3498487473,0,0,0,1486,1488,1490,1618,14.8819999695,807,14.404296875,214.364745654
134.144208908,0.300920099,0.0081592696,-0.1704166979,0.6261965632,-1.2745909691,11.3755722046,0,0,0,1487,1489,1489,1618,14.8819999695,815,14.794921875,220.178026893
134.242923021,0.2303805053,0.0001945177,-0.1616541743,0.4785354733,-0.8533582091,6.4147820473,0,0,0,1486,1489,1489,1618,14.8819999695,815,14.794921875,220.178026893
134.344964027,0.121970661,0.0005678912,-0.1579421163,-0.5564730763,-0.0637049973,7.6231184006,0,0,0,1486,1488,1488,1601,14.8940000534,768,12.5,186.175000668
134.443110943,0.0735863596,-0.0029156143,-0.1671521515,-0.2218218744,-1.4587106705,6.3688073158,0,0,0,1486,1488,1488,1594,14.8940000534,796,13.8671875,206.537891366
134.545465946,-0.0041934904,0.0026731952,-0.155672133,-1.3841782808,-0.5647630095,14.3106441498,0,0,0,1486,1488,1486,1521,14.906999588,776,12.890625,192.160541564
134.644271851,-0.0613396429,0.017714873,-0.1447504461,-0.2648437619,0.516005218,12.0112695694,0,0,0,1487,1489,1490,1518,14.906999588,779,13.037109375,194.344184082
134.746017933,-0.1086921617,0.0300321542,-0.1572369933,-1.6490497589,-0.5532898903,15.0463590622,0,0,0,1486,1488,1502,1518,14.906999588,818,14.94140625,222.731536813
134.844487906,-0.1438999474,0.039349854,-0.1456140578,-0.9240303636,0.4110862613,10.3735780716,0,0,0,1486,1488,1500,1524,14.906999588,771,12.646484375,188.521137368
134.946972847,-0.1375315934,0.0413985625,-0.1567470282,0.565910697,0.0330928601,11.6237344742,0,0,0,1487,1489,1488,1637,14.9090003967,830,15.52734375,231.497174128
135.045105934,-0.1365600526,0.0476597883,-0.1334956139,2.4915058613,-1.3846337795,6.2614254952,0,0,0,1486,1488,1471,1654,14.9090003967,843,16.162109375,240.960895083
135.143399954,-0.129912436,0.0372828431,-0.1063116491,0.0457867235,-1.4184038639,8.192978859,0,0,0,1486,1489,1458,1519,14.906999588,823,15.185546875,226.370941009
135.245750904,-0.1386245936,0.0321087912,-0.1049363911,-0.741872251,-1.3148012161,11.2565011978,0,0,0,1486,1489,1458,1519,14.906999588,805,14.306640625,213.269085903
135.344208956,-0.1504248083,0.0282836054,-0.0963815376,-3.1992607117,0.4768274426,13.780040741,0,0,0,1486,1488,1457,1519,14.9239997864,720,10.15625,151.571872831
135.44667697,-0.1442626268,0.0150269885,-0.3230969012,-1.7909413576,-2.5342180729,9.370016098,0,0,0,1486,1488,1405,1587,14.9239997864,601,4.345703125,64.8552725093
135.544882059,-0.125279054,0.0103457896,-0.6467596293,-2.5131449699,0.6022840142,9.6934509277,0,0,0,1486,1489,1390,1645,14.9449996948,802,14.16015625,211.623530835
135.647353888,-0.0694298893,-0.0153971845,-0.7107259035,0.2216773927,-0.7270160317,8.0473899841,0,0,0,1486,1488,1383,1591,14.9449996948,807,14.404296875,215.272212401
135.745637894,-0.0321762487,-0.0725828782,-0.7127543092,-1.6143426895,-1.5880316496,11.0118312836,0,0,0,1487,1489,1383,1518,14.9440002441,807,14.404296875,215.257816016
135.84809494,-0.0132743819,-0.1034983695,-0.6958227754,-1.0161440373,-0.8040599823,7.8934011459,0,0,0,1486,1488,1383,1518,14.9440002441,783,13.232421875,197.74531573
135.946111917,0.0043280241,-0.1267498732,-0.6768198609,-0.2236555517,-0.355982095,10.535990715,0,0,0,1486,1488,1383,1521,14.9390001297,787,13.427734375,200.59692557
136.048665047,0.0036518034,-0.1307243854,-0.6681706905,-0.3658440709,-0.3894563317,9.4662408829,0,0,0,1486,1488,1384,1520,14.9390001297,760,12.109375,180.901954696
