timestamp,vel_x,vel_y,vel_z,acc_x,acc_y,acc_z,roll,pitch,yaw,rc0,rc1,rc2,rc3,vol,cur_raw,cur,power,vel,,,,,,,,,,,,,,,,
113.908777952,0.0721553788,-0.0193489362,0.1352057457,0.2215961963,-1.2635812759,6.4303169251,0,0,0,1488,1487,1515,1521,16.1979999542,763,12.255859375,198.520409595,7.7235635707,,,,,,,,,,,,,,,,
114.011388063,0.0871439949,-0.0254909825,-0.0752606466,-0.0736646503,-0.0420024469,8.7555437088,0,0,0,1488,1487,1505,1522,16.2250003815,823,15.185546875,246.38550384,5.8966157588,,,,,,,,,,,,,,,,
114.109991074,0.1147254631,-0.0274406113,-0.1206433177,-0.0114826718,-0.1900725514,11.2356414795,0,0,0,1488,1489,1497,1521,16.2250003815,800,14.0625,228.164067865,8.4364875893,,,,,,,,,,,,,,,,
114.211830139,0.118851006,-0.0224157833,-0.0977343991,-0.358246088,-0.4352653325,10.2681837082,0,0,0,1488,1487,1498,1521,16.2000007629,751,11.669921875,189.052743278,7.7749665169,,,,,,,,,,,,,,,,
114.310245037,0.1146481261,-0.012801826,-0.0929066762,-0.6428284049,-0.0856141001,9.8278646469,0,0,0,1488,1487,1498,1522,16.2000007629,803,14.208984375,230.185557715,7.4060330221,,,,,,,,,,,,,,,,
114.412339926,0.10486909,-0.0055692331,-0.0738120675,-0.0501779094,-0.4205980003,11.0630474091,0,0,0,1489,1486,1499,1522,16.1819992065,765,12.353515625,199.904580041,6.4180923379,,,,,,,,,,,,,,,,
114.510852098,0.1014077142,-0.0080638323,-0.0568161495,0.2279852629,-0.7610121965,11.9336414337,0,0,0,1488,1487,1503,1522,16.1819992065,775,12.841796875,207.805946841,5.8259387086,,,,,,,,,,,,,,,,
114.608953953,0.0913548097,-0.0180978887,-0.0625949353,0.3528234959,-0.2875226736,10.906709671,0,0,0,1489,1486,1504,1522,16.1650009155,769,12.548828125,202.851818129,5.6105616376,,,,,,,,,,,,,,,,
114.711313963,0.0751445964,-0.0255239364,-0.0619795285,-0.2315499038,-1.4269354343,11.2927541733,0,0,0,1488,1486,1505,1522,16.1650009155,765,12.353515625,199.694591388,5.0347898791,,,,,,,,,,,,,,,,
114.809781075,0.0595458671,-0.0327231586,-0.0575923771,1.1324421167,-0.1564900428,7.9181666374,0,0,0,1488,1487,1512,1522,16.1529998779,765,12.353515625,199.546336382,4.4534810254,,,,,,,,,,,,,,,,
114.912529945,0.0447166488,-0.0366250947,-0.0524771549,-1.0223345757,-0.8835002184,12.1771202087,0,0,0,1488,1486,1515,1522,16.1529998779,776,12.890625,208.222264051,3.903468979,,,,,,,,,,,,,,,,
115.010824919,0.0322507583,-0.0426846929,-0.0517059192,-0.6176829338,-1.7720274925,10.1573667526,0,0,0,1488,1488,1515,1522,16.1399993896,753,11.767578125,189.928703755,3.720079468,,,,,,,,,,,,,,,,
115.113117933,0.0227899998,-0.0529205389,-0.0627660602,-0.1024020463,-0.3167431057,12.6279554367,0,0,0,1488,1487,1514,1521,16.1399993896,759,12.060546875,194.657219201,4.260148425,,,,,,,,,,,,,,,,
115.21125102,0.0186693184,-0.051916603,-0.0607016124,0.4360278249,-1.0862575769,9.1130285263,0,0,0,1488,1486,1515,1521,16.1280002594,767,12.451171875,200.81250323,4.1013908813,,,,,,,,,,,,,,,,
115.314082146,0.0086623197,-0.0540479533,-0.05553215,-0.6803731918,-0.5342515707,8.9262599945,0,0,0,1488,1486,1514,1522,16.1280002594,751,11.669921875,188.212503027,3.8987295117,,,,,,,,,,,,,,,,
115.412153959,0.0098571992,-0.0505466983,-0.0540279746,0.7353758216,-0.2578650117,11.8643255234,0,0,0,1488,1488,1515,1522,16.1189994812,788,13.4765625,217.228703946,3.7320085492,,,,,,,,,,,,,,,,
115.514734983,0.0144566959,-0.0272967592,-0.0463401116,0.1284156144,-0.9476902485,11.9046945572,0,0,0,1488,1487,1514,1522,16.1189994812,779,13.037109375,210.145159252,2.7845623814,,,,,,,,,,,,,,,,
115.612632036,0.0142850932,-0.0125149572,-0.0525214076,-0.2098579854,-0.057569474,10.3382778168,0,0,0,1488,1486,1515,1520,16.1100006104,798,13.96484375,224.973641337,2.7924837948,,,,,,,,,,,,,,,,
115.714976072,0.0149088623,-0.0032993362,-0.0469038263,0.8795495629,0.0374183618,7.5589337349,0,0,0,1488,1488,1515,1522,16.1100006104,795,13.818359375,222.613777966,2.4663377283,,,,,,,,,,,,,,,,
115.813491106,0.011553036,0.005099941,-0.0427906141,0.0753035471,-2.2659099102,10.8244304657,0,0,0,1488,1486,1514,1522,16.1030006409,779,13.037109375,209.936580621,2.2307614698,,,,,,,,,,,,,,,,
115.912250042,0.0113813346,-0.0037345085,-0.0434742235,0.0098312162,-0.1025532857,5.9063167572,0,0,0,1488,1488,1515,1522,16.1030006409,767,12.451171875,200.501228683,2.2547114227,,,,,,,,,,,,,,,,
116.014261007,0.0284216218,-0.0047331215,-0.0454962924,-0.8861105442,-0.6258153915,8.8074045181,0,0,0,1488,1488,1515,1522,16.0939998627,743,11.279296875,181.529002358,2.6926305201,,,,,,,,,,,,,,,,
116.112921,0.0372947119,-0.017317405,-0.0427976139,0.833845377,-0.8452042341,8.2837638855,0,0,0,1488,1488,1515,1522,16.0939998627,777,12.939453125,208.247556817,2.9675005506,,,,,,,,,,,,,,,,
116.21472311,0.0561099499,-0.0268531945,-0.0598072857,-0.0121830814,-0.5116275549,12.0871829987,0,0,0,1488,1486,1512,1522,16.091999054,789,13.525390625,217.650573142,4.314606574,,,,,,,,,,,,,,,,
116.313172102,0.0771271586,-0.0345635563,-0.0621928237,0.7465057969,-1.3759220839,10.2324733734,0,0,0,1488,1486,1511,1522,16.091999054,789,13.525390625,217.650573142,5.2467097637,,,,,,,,,,,,,,,,
116.415300131,0.093445994,-0.0572467223,-0.0654426366,-0.5509939194,-1.2300570011,8.5506753922,0,0,0,1489,1488,1503,1522,16.0820007324,772,12.6953125,204.166024923,6.3820215633,,,,,,,,,,,,,,,,
116.514200926,0.1226277202,-0.0818567052,-0.0763520449,-0.2591227591,-1.445630312,12.9448127747,0,0,0,1488,1488,1498,1522,16.0820007324,754,11.81640625,190.031453967,8.3017637747,,,,,,,,,,,,,,,,
116.616081953,0.1315999329,-0.1089099497,-0.0952963978,-0.4460937679,0.4740979075,10.0105476379,0,0,0,1488,1486,1498,1522,16.0820007324,791,13.623046875,219.085849821,9.7802508808,,,,,,,,,,,,,,,,
116.714594126,0.1347809136,-0.1364719272,-0.0974204391,0.4522204697,1.1568695307,9.5092897415,0,0,0,1488,1486,1498,1521,16.0750007629,787,13.427734375,215.850840322,10.7565356341,,,,,,,,,,,,,,,,
116.817122936,0.1412275881,-0.1559650153,-0.0928507,0.8959553242,0.1007618979,9.0915622711,0,0,0,1488,1486,1498,1522,16.0709991455,781,13.134765625,211.088807136,11.4990836731,,,,,,,,,,,,,,,,
116.915082932,0.1506664902,-0.157200411,-0.0829586834,-0.9880023003,-1.0516067743,8.0837249756,0,0,0,1489,1488,1498,1522,16.0709991455,804,14.2578125,229.137292504,11.6505905043,,,,,,,,,,,,,,,,
117.017421961,0.1679072678,-0.1515623033,-0.0799408332,1.3020657301,-0.6448730826,8.6584348679,0,0,0,1489,1488,1498,1522,16.0709991455,798,13.96484375,224.428991973,11.9952614784,,,,,,,,,,,,,,,,
117.115652084,0.1768186241,-0.1416888833,-0.0860984921,-0.0433405787,0.055556085,10.5528850555,0,0,0,1488,1490,1497,1522,16.0629997253,755,11.865234375,190.591256506,12.1195622674,,,,,,,,,,,,,,,,
117.214332104,0.1780537218,-0.1485995352,-0.0706337094,0.3232615888,-0.3200276494,7.8981909752,0,0,0,1488,1489,1498,1522,16.0629997253,775,12.841796875,206.277779675,12.1216820834,,,,,,,,,,,,,,,,
117.316496134,0.1774523258,-0.1568106115,-0.0592258684,-0.1233088672,-0.8954645395,8.399137497,0,0,0,1488,1489,1498,1521,16.0540008545,828,15.4296875,247.70821631,12.2051832533,,,,,,,,,,,,,,,,
117.414886951,0.1733575165,-0.1726832092,-0.056747403,0.8583378792,-1.420845747,9.4874696732,0,0,0,1488,1489,1498,1522,16.0540008545,789,13.525390625,217.136632651,12.5591188996,,,,,,,,,,,,,,,,
117.517257929,0.1638552099,-0.1897254884,-0.0464337356,1.0102417469,-1.4333033562,10.1857852936,0,0,0,1488,1489,1498,1522,16.0480003357,783,13.232421875,212.353910692,12.7475862972,,,,,,,,,,,,,,,,
117.615736008,0.1550327986,-0.2034443021,-0.0306189433,0.8983213902,0.6765553355,9.9883136749,0,0,0,1493,1488,1498,1522,16.0480003357,767,12.451171875,199.81641043,12.8804379184,,,,,,,,,,,,,,,,
117.718068123,0.1494632065,-0.2171853185,-0.0361391604,1.2842414379,-0.0283124968,7.6699852943,0,0,0,1487,1488,1498,1521,16.0419998169,767,12.451171875,199.741696939,13.3055206196,,,,,,,,,,,,,,,,
117.816318035,0.1348599195,-0.2263599634,-0.0263200626,0.3140169978,0.4835337102,8.7870922089,0,0,0,1486,1488,1498,1522,16.0419998169,799,14.013671875,224.807321653,13.2399751334,,,,,,,,,,,,,,,,
117.918661118,0.1209940016,-0.2284413427,-0.0357816741,0.1509003788,0.9217264056,11.3840084076,0,0,0,1486,1488,1498,1522,16.0400009155,747,11.474609375,184.05274488,13.0484983503,,,,,,,,,,,,,,,,
118.016978979,0.1010116562,-0.2261473686,-0.0431421213,0.2120570987,0.6053899527,7.9839920998,0,0,0,1486,1488,1498,1522,16.0400009155,791,13.623046875,218.513684347,12.5705240188,,,,,,,,,,,,,,,,
118.119205952,0.0770594478,-0.2155297101,-0.063384667,0.2073841989,-1.5013276339,11.646903038,0,0,0,1486,1488,1498,1522,16.0389995575,751,11.669921875,187.173871789,11.8752716223,,,,,,,,,,,,,,,,
118.217432022,0.0634154752,-0.2091436684,-0.0717547983,0.5924165249,-0.2077164352,8.7070941925,0,0,0,1486,1488,1498,1522,16.0389995575,786,13.37890625,214.584271424,11.5012333693,,,,,,,,,,,,,,,,
118.316046,0.039707914,-0.195965156,-0.1020388231,-0.2346373796,-0.3766876459,10.9674434662,0,0,0,1486,1488,1498,1521,16.0410003662,773,12.744140625,204.428764433,11.2239679058,,,,,,,,,,,,,,,,
118.418859959,0.0271965172,-0.1856744587,-0.1294123828,0.8708651662,-0.7489370704,8.5036258698,0,0,0,1487,1488,1498,1522,16.0410003662,763,12.255859375,196.596244722,11.3976115901,,,,,,,,,,,,,,,,
118.516603947,0.0196186788,-0.1719146669,-0.1364400238,-0.7399767637,0.6981628537,11.2518177032,0,0,0,1486,1488,1498,1522,16.0410003662,759,12.060546875,193.463236838,11.0176478147,,,,,,,,,,,,,,,,
118.619189024,0.0049006925,-0.1398640722,-0.1416638941,0.6494317651,-0.4338970184,8.0383577347,0,0,0,1486,1488,1498,1522,16.0410003662,764,12.3046875,197.379496693,9.9567357064,,,,,,,,,,,,,,,,
118.717349052,-0.0045847446,-0.1199321374,-0.1401667446,-0.0066868179,-1.7417656183,12.2755842209,0,0,0,1486,1488,1498,1522,16.0380001068,782,13.18359375,211.438477971,9.2265179992,,,,,,,,,,,,,,,,
118.81952095,-0.0205161422,-0.1009252518,-0.1454431117,1.4543157816,-0.6354846954,8.9034938812,0,0,0,1487,1488,1498,1522,16.0380001068,800,14.0625,225.534376502,8.9107403288,,,,,,,,,,,,,,,,
118.918103933,-0.0261429809,-0.0790311694,-0.1329267621,0.1379022151,0.1413782537,10.5873355865,0,0,0,1488,1485,1498,1522,16.0340003967,772,12.6953125,203.556645661,7.8420190751,,,,,,,,,,,,,,,,
119.020168066,-0.0366812497,-0.052894026,-0.134162575,1.0618618727,-1.1972328425,10.3659343719,0,0,0,1487,1492,1498,1522,16.0340003967,761,12.158203125,194.944633729,7.4402433758,,,,,,,,,,,,,,,,
119.118912935,-0.0326474085,-0.0384647995,-0.1229981184,1.5020260811,-1.5027397871,9.3962259293,0,0,0,1486,1490,1498,1522,16.0370006561,767,12.451171875,199.679451529,6.6471669176,,,,,,,,,,,,,,,,
119.220816135,-0.0316042751,-0.0144347493,-0.116086252,0.6993690133,-0.8423327208,10.7751245499,0,0,0,1486,1486,1498,1522,16.0370006561,788,13.4765625,216.123641654,6.0587148174,,,,,,,,,,,,,,,,
119.319288969,-0.0254128296,-0.005152592,-0.0983484164,0.2906180322,-2.6522862911,9.4559526444,0,0,0,1486,1486,1498,1522,16.0289993286,784,13.28125,212.885147333,5.0854626439,,,,,,,,,,,,,,,,
119.421597004,-0.0197236761,0.0070887608,-0.116225794,0.3208812475,0.0883609727,11.7028369904,0,0,0,1486,1487,1498,1521,16.0289993286,765,12.353515625,198.014493659,5.9050209821,,,,,,,,,,,,,,,,
119.520043135,0.0112992302,0.0178896375,-0.0954632759,0.4014460444,1.0730419159,8.8234214783,0,0,0,1487,1488,1498,1522,16.0240001678,758,12.01171875,192.475783266,4.8890052103,,,,,,,,,,,,,,,,
119.618217945,0.0188289154,0.0205478165,-0.101007849,0.7218563557,-0.3551340401,9.8260135651,0,0,0,1487,1488,1498,1522,16.0240001678,785,13.330078125,213.601174112,5.2391140419,,,,,,,,,,,,,,,,
119.720643997,0.0529480986,0.023346832,-0.1044318974,-0.1085829586,0.6475992799,8.6463623047,0,0,0,1487,1488,1498,1522,16.0160007477,782,13.18359375,211.148447357,5.9696308312,,,,,,,,,,,,,,,,
119.818952084,0.070073247,0.0184312724,-0.0894095525,0.6381528378,-0.3430574536,9.624622345,0,0,0,1486,1488,1498,1522,16.0160007477,777,12.939453125,207.238290925,5.7541376039,,,,,,,,,,,,,,,,
119.921344995,0.0767934322,0.014864007,-0.0849722773,0.8526500463,-0.272557199,9.9238920212,0,0,0,1486,1488,1498,1522,16.0130004883,789,13.525390625,216.582086683,5.7746120741,,,,,,,,,,,,,,,,
120.019829988,0.0767605752,0.0093636392,-0.0918481797,0.5190545917,-0.1517250836,12.1191596985,0,0,0,1486,1488,1498,1521,16.0130004883,749,11.572265625,185.306695104,6.0033223631,,,,,,,,,,,,,,,,
120.122321129,0.0767731965,0.0119012613,-0.0613880344,0.3534136117,-0.2431965023,11.7328338623,0,0,0,1487,1488,1498,1522,16.0109996796,778,12.98828125,207.955366932,4.9508217724,,,,,,,,,,,,,,,,
120.220763922,0.0752977058,-0.0068485662,-0.0704700574,-0.1760701686,1.0047774315,10.4637413025,0,0,0,1538,1488,1498,1522,16.0109996796,723,10.302734375,164.957076777,5.1678516687,,,,,,,,,,,,,,,,
120.323024035,0.0782265142,-0.0160255134,-0.0674683303,-1.5687594414,-0.8511953354,11.2724723816,0,0,0,1842,1486,1498,1521,16.0109996796,768,12.5,200.137495995,5.226896832,,,,,,,,,,,,,,,,
120.421000957,0.1171578243,-0.0318765789,-0.0634582117,-2.0225622654,-0.7189859152,10.7626686096,0,0,0,1898,1488,1498,1522,16.0109996796,796,13.8671875,222.027534619,6.8500030491,,,,,,,,,,,,,,,,
120.523602962,0.2258276641,-0.0324337929,-0.0511070527,0.0020036097,0.0291454643,9.6210718155,0,0,0,1898,1489,1498,1522,16.0130004883,848,16.40625,262.713289261,11.6899546225,,,,,,,,,,,,,,,,
120.621967077,0.4246514738,-0.0415593497,-0.0249909516,-0.5142585039,0.7055227757,13.31254673,0,0,0,1898,1487,1498,1520,16.0130004883,799,14.013671875,224.400934577,21.3705756479,,,,,,,,,,,,,,,,
120.72402215,0.6886506081,-0.0625726804,-0.0204454474,-0.0938927829,-0.081689775,13.9619617462,0,0,0,1898,1487,1498,1522,16.0049991608,801,14.111328125,225.851794798,34.5894859997,,,,,,,,,,,,,,,,
120.822538137,1.00415802,-0.0999851674,-0.0209746044,-0.2845644653,-0.4375763237,10.2576446533,0,0,0,1898,1489,1498,1521,16.0049991608,819,14.990234375,239.918688592,50.4670758233,,,,,,,,,,,,,,,,
120.921146154,1.3841000795,-0.1597800851,-0.0156749189,-0.9856475592,-2.4272317886,10.9980182648,0,0,0,1898,1487,1498,1522,16.0049991608,793,13.720703125,219.599842001,69.6690104844,,,,,,,,,,,,,,,,
121.023195028,1.7837392092,-0.229918927,-0.019844614,-0.0302977357,-1.2134279013,13.4374790192,0,0,0,1898,1489,1498,1522,16.0049991608,809,14.501953125,232.103747596,89.9302797746,,,,,,,,,,,,,,,,
121.121562004,2.1619873047,-0.2948341072,-0.0411766954,0.5271167159,-0.093277514,9.3695554733,0,0,0,1898,1487,1498,1522,15.998000145,809,14.501953125,232.002248197,109.1193357831,,,,,,,,,,,,,,,,
121.223865032,2.6248805523,-0.3803723454,-0.0664121732,-0.6503164172,0.5447906852,9.5514259338,0,0,0,1898,1487,1498,1522,15.998000145,892,18.5546875,296.837893315,132.6564322954,,,,,,,,,,,,,,,,
121.323107004,2.9239296913,-0.4381877482,-0.0861807391,0.3526368737,-2.0232644081,13.1721611023,0,0,0,1898,1489,1498,1522,15.984000206,871,17.529296875,280.188284861,147.8918562847,,,,,,,,,,,,,,,,
121.42454505,3.5484232903,-0.6258094311,-0.0767267644,-0.5404394865,-1.7104965448,12.6157016754,0,0,0,1898,1489,1498,1522,15.984000206,859,16.943359375,270.82265974,180.2001129826,,,,,,,,,,,,,,,,
121.523029089,3.8223454952,-0.7088806629,-0.0834934413,1.8902142048,-0.8691395521,10.3477277756,0,0,0,1898,1489,1498,1522,15.9739999771,892,18.5546875,296.3925777,194.4209867379,,,,,,,,,,,,,,,,
121.625285149,4.42928648,-0.85920614,-0.0810567364,-1.1733871698,-2.0813531876,10.7458105087,0,0,0,1898,1489,1498,1522,15.9739999771,849,16.455078125,262.853417592,225.6290324152,,,,,,,,,,,,,,,,
121.723765135,4.7550268173,-0.8968276381,-0.09479554,1.5491403341,-0.0013041426,10.8841094971,0,0,0,1898,1489,1498,1522,15.9739999771,869,17.431640625,278.453026945,241.9894937808,,,,,,,,,,,,,,,,
121.82632494,5.3194656372,-1.0087012053,-0.091068916,0.4252969921,0.9221516848,5.75005579,0,0,0,1898,1487,1498,1522,15.9739999771,883,18.115234375,289.372753491,270.7512065273,,,,,,,,,,,,,,,,
121.924351931,5.5701785088,-1.0365145207,-0.1191962287,0.7939731479,-0.4206358194,12.2816572189,0,0,0,1898,1488,1498,1522,15.9329996109,708,9.5703125,152.483785339,283.3525132783,,,,,,,,,,,,,,,,
122.026559114,6.0921630859,-1.1173442602,-0.1678144336,0.0599949472,-1.2561181784,10.9541025162,0,0,0,1898,1488,1498,1522,15.9329996109,911,19.482421875,310.413420154,309.8026426014,,,,,,,,,,,,,,,,
122.125426054,6.305357933,-1.1833277941,-0.1382721215,1.9092437029,-2.1369223595,10.7935085297,0,0,0,1878,1488,1498,1522,15.9280004501,793,13.720703125,218.543365551,320.8462346324,,,,,,,,,,,,,,,,
122.223632097,6.4925708771,-1.2544044256,-0.1088907644,-0.5159904957,-3.8975470066,11.8003110886,0,0,0,1848,1488,1498,1522,15.9280004501,791,13.623046875,216.987896757,330.6768220472,,,,,,,,,,,,,,,,
122.325478077,6.5269179344,-1.2939579487,-0.0363825038,0.758911252,-1.7696756125,13.3865604401,0,0,0,1841,1488,1498,1522,15.9359998703,695,8.935546875,142.396873841,332.7022264052,,,,,,,,,,,,,,,,
122.423967123,6.5558962822,-1.3554055691,-0.0079030106,1.5574588776,-1.6534347534,5.5493340492,0,0,0,1788,1490,1498,1522,15.9359998703,613,4.931640625,78.5906243604,334.7273621072,,,,,,,,,,,,,,,,
122.526260138,6.4193220139,-1.3610072136,0.0283230636,1.4234186411,-7.7509460449,11.9791135788,0,0,0,1721,1490,1498,1521,15.968000412,702,9.27734375,148.140628822,328.1037867411,,,,,,,,,,,,,,,,
122.625139952,6.0867218971,-1.3653018475,0.0773994401,0.7405207753,1.4249770641,3.0630178452,0,0,0,1652,1490,1498,1521,15.968000412,704,9.375,149.700003863,311.9223591727,,,,,,,,,,,,,,,,
122.726896048,5.6413068771,-1.3239217997,0.1151426211,1.2364931107,-3.9775774479,13.7167348862,0,0,0,1564,1490,1498,1522,15.9879999161,716,9.9609375,159.255467914,289.7859987841,,,,,,,,,,,,,,,,
122.825330973,5.0660228729,-1.2348227501,0.0925683901,1.1669455767,-0.9290425777,12.6070079803,0,0,0,1489,1488,1498,1522,15.9879999161,737,10.986328125,175.649413141,260.7582399453,,,,,,,,,,,,,,,,
122.927643061,4.3163943291,-1.0394579172,0.1021963134,0.4363853931,-0.5026891828,9.6505975723,0,0,0,1488,1489,1498,1522,15.9949998856,752,11.71875,187.441404909,222.0482878362,,,,,,,,,,,,,,,,
123.026042938,3.5252437592,-0.8574723601,0.0582866333,0.0373726785,0.7234840989,12.3136100769,0,0,0,1487,1485,1498,1522,15.9949998856,767,12.451171875,199.156492716,181.4249138193,,,,,,,,,,,,,,,,
123.128515005,2.6850214005,-0.6420714259,-0.0291441586,1.535815239,1.3264161348,10.007147789,0,0,0,1486,1488,1498,1521,15.9949998856,768,12.5,199.93749857,138.0438790664,,,,,,,,,,,,,,,,
123.22676897,1.9823365212,-0.4672397375,-0.0829347223,2.5122931004,-2.1385955811,10.7535257339,0,0,0,1488,1488,1498,1522,15.998000145,755,11.865234375,189.820021252,101.9172363213,,,,,,,,,,,,,,,,
123.325381041,1.4678966999,-0.3338972628,-0.114181377,-0.5398638248,1.3980213404,9.6775159836,0,0,0,1487,1487,1498,1521,15.998000145,819,14.990234375,239.813771705,75.4858511666,,,,,,,,,,,,,,,,
123.427645922,1.1217133999,-0.2457166016,-0.0543073565,-0.3756340444,-1.7116727829,10.8412618637,0,0,0,1487,1489,1498,1521,16.0049991608,765,12.353515625,197.718007211,57.4797113943,,,,,,,,,,,,,,,,
123.525861979,0.9033169746,-0.1490845382,-0.0974719077,-0.148110047,-0.5191329122,8.1707353592,0,0,0,1488,1498,1498,1521,16.0049991608,798,13.96484375,223.507312499,46.0355441187,,,,,,,,,,,,,,,,
123.628396988,0.7362661958,-0.1007018313,-0.098888576,0.9526624084,0.9658560753,7.6797609329,0,0,0,1495,1503,1498,1521,16.0020008087,795,13.818359375,221.121397894,37.4835870872,,,,,,,,,,,,,,,,
123.726709127,0.5817251205,-0.119635053,-0.0643746108,-0.8343392015,2.0738606453,13.0656147003,0,0,0,1542,1496,1498,1521,16.0020008087,779,13.037109375,208.619834762,29.8689116073,,,,,,,,,,,,,,,,
123.82875514,0.4859585464,-0.1616759598,-0.0380454846,0.5326961875,0.3218622208,10.9807319641,0,0,0,1848,1486,1498,1521,15.9890003204,790,13.57421875,217.038187943,25.6779226036,,,,,,,,,,,,,,,,
123.927389145,0.4597197473,-0.197190851,-0.0289710462,0.2273777574,-0.7840383053,11.7019948959,0,0,0,1898,1529,1498,1522,15.9890003204,799,14.013671875,224.064604099,25.053233289,,,,,,,,,,,,,,,,
124.02969408,0.5297820568,-0.2515879273,0.0324790701,0.6530396342,0.5687538981,11.0625476837,0,0,0,1898,1555,1498,1521,15.9879999161,810,14.55078125,232.637889404,29.3692187019,,,,,,,,,,,,,,,,
124.127835989,0.6986474991,-0.3141395748,0.0641244873,1.354572773,-0.4617729485,10.145201683,0,0,0,1898,1569,1498,1522,15.9879999161,821,15.087890625,241.225194047,38.4351385559,,,,,,,,,,,,,,,,
124.230204105,0.924511373,-0.3906440735,0.0888059661,1.1692459583,-1.1991821528,10.7480783463,0,0,0,1898,1555,1498,1522,15.9879999161,819,14.990234375,239.66386593,50.3788291493,,,,,,,,,,,,,,,,
124.328663111,1.2507139444,-0.4583627582,0.1192056984,0.3752198517,-0.229915753,12.1406354904,0,0,0,1898,1552,1498,1521,15.9879999161,821,15.087890625,241.225194047,66.8691219352,,,,,,,,,,,,,,,,
124.430983067,1.6198618412,-0.5493985415,0.1523040384,1.3861750364,-3.0909535885,11.1486740112,0,0,0,1898,1552,1498,1522,15.9610004425,805,14.306640625,228.348297346,85.8630837743,,,,,,,,,,,,,,,,
124.529569149,2.0062568188,-0.6689745188,0.1542699784,1.3383368254,-2.2374191284,11.8007383347,0,0,0,1898,1545,1498,1522,15.9610004425,812,14.6484375,233.803717419,106.0234945191,,,,,,,,,,,,,,,,
124.627437115,2.3207676411,-0.7772170305,0.1530441344,0.5683335066,1.4221014977,9.1834373474,0,0,0,1898,1544,1498,1522,15.9530000687,813,14.697265625,234.465479525,122.6116966642,,,,,,,,,,,,,,,,
124.729959965,2.8749723434,-0.9468485713,0.1257505417,0.9047724009,-0.1809359491,10.4862194061,0,0,0,1898,1527,1498,1522,15.9530000687,847,16.357421875,260.949952296,151.4744317618,,,,,,,,,,,,,,,,
124.828243017,3.1778588295,-1.0390992165,0.115467608,-0.0114476718,-1.7464834452,10.8639802933,0,0,0,1898,1523,1498,1521,15.9530000687,896,18.75,299.118751288,167.271087538,,,,,,,,,,,,,,,,
124.930679083,3.6240742207,-1.1528849602,0.1101303697,-0.83159554,-2.1726100445,11.1488428116,0,0,0,1898,1515,1498,1521,15.9530000687,880,17.96875,286.655469984,190.2313485399,,,,,,,,,,,,,,,,
125.02899313,4.2012248039,-1.2818830013,0.1353188604,-2.0839362145,-2.7649927139,11.233625412,0,0,0,1898,1505,1498,1522,15.9189996719,917,19.775390625,314.804436871,219.726108348,,,,,,,,,,,,,,,,
125.131263971,4.4776725769,-1.3346208334,0.1307015866,1.1720081568,0.5162486434,10.9071722031,0,0,0,1898,1498,1498,1522,15.9189996719,947,21.240234375,338.123284047,233.7084047462,,,,,,,,,,,,,,,,
125.22956109,4.950214386,-1.4468859434,0.1726371795,-0.8639189005,-0.0783761665,14.1403579712,0,0,0,1898,1489,1498,1522,15.888999939,895,18.701171875,297.142918781,258.0111673761,,,,,,,,,,,,,,,,
125.331973076,5.431394577,-1.5532021523,0.2108944803,2.903526783,-2.2011044025,12.0844612122,0,0,0,1891,1489,1498,1522,15.888999939,971,22.412109375,356.106004492,282.6524387777,,,,,,,,,,,,,,,,
125.430448055,5.7623744011,-1.6429893971,0.250680238,0.3811729848,0.2144074589,11.2373065948,0,0,0,1880,1489,1498,1522,15.8579998016,864,17.1875,272.55937159,299.8633583783,,,,,,,,,,,,,,,,
125.53255105,6.3546462059,-1.7609051466,0.3472344279,2.2663910389,-1.0522692204,7.8971910477,0,0,0,1845,1487,1498,1522,15.8579998016,783,13.232421875,209.839743468,330.1624111154,,,,,,,,,,,,,,,,
125.631150961,6.3546462059,-1.7609051466,0.3472344279,-0.3920396268,0.2715566754,13.6755075455,0,0,0,1842,1487,1498,1522,15.859000206,816,14.84375,235.407034308,330.1624111154,,,,,,,,,,,,,,,,
125.733343124,6.5507998467,-1.7881315947,0.4518886805,0.1138211861,-2.644957304,12.1541252136,0,0,0,1798,1487,1498,1522,15.859000206,769,12.548828125,199.011867819,340.2741417264,,,,,,,,,,,,,,,,
125.831581116,6.5040531158,-1.7582705021,0.5370127559,0.7236190438,-1.2281787396,7.7366738319,0,0,0,1687,1486,1498,1522,15.8680000305,771,12.646484375,200.674414448,337.944539798,,,,,,,,,,,,,,,,
125.93009305,6.3070063591,-1.7097636461,0.5777999163,1.0510150194,0.3131908476,8.0824670792,0,0,0,1651,1486,1498,1521,15.8680000305,723,10.302734375,163.483789377,328.0071404807,,,,,,,,,,,,,,,,
126.032335997,5.7532024384,-1.5700412989,0.6259207129,0.9384945035,1.7756310701,7.1491422653,0,0,0,1527,1489,1498,1522,15.8850002289,744,11.328125,179.947268218,299.8172139667,,,,,,,,,,,,,,,,
126.130944014,5.3593125343,-1.4546608925,0.6116588116,0.5922750831,-2.1791138649,14.3965854645,0,0,0,1539,1487,1499,1522,15.8850002289,757,11.962890625,190.030520316,279.3402748186,,,,,,,,,,,,,,,,
126.233029127,4.3568472862,-1.1562514305,0.5038392544,0.4116193056,-0.1082080156,17.4496307373,0,0,0,1665,1487,1498,1521,15.9079999924,705,9.423828125,149.914257741,226.7867370465,,,,,,,,,,,,,,,,
126.33180213,3.8529376984,-0.9982215762,0.4090703428,2.4891805649,-1.0020978451,9.2304048538,0,0,0,1738,1489,1498,1521,15.9079999924,704,9.375,149.137499929,200.0557032947,,,,,,,,,,,,,,,,
126.43397212,3.2666883469,-0.8298690319,0.2609254122,2.6876547337,3.6345441341,6.2702522278,0,0,0,1764,1488,1499,1522,15.9259996414,755,11.865234375,188.965718401,169.0267540703,,,,,,,,,,,,,,,,
126.532248974,2.8362460136,-0.7140303254,0.1383270919,0.5042746663,-0.9831377268,9.679564476,0,0,0,1767,1490,1498,1521,15.9259996414,827,15.380859375,244.955560891,146.4006927887,,,,,,,,,,,,,,,,
126.6345191,2.6250109673,-0.6469768286,0.0848492905,-0.6012269259,-2.3299286366,11.571846962,0,0,0,1787,1490,1498,1522,15.9289999008,795,13.818359375,220.112645114,135.2447873052,,,,,,,,,,,,,,,,
126.733411074,2.627571106,-0.6696038842,0.1320762187,0.7476724386,-0.1712072343,11.1887340546,0,0,0,1764,1498,1498,1522,15.9289999008,795,13.818359375,220.112645114,135.7381984407,,,,,,,,,,,,,,,,
126.835652113,2.7373671532,-0.7306883335,0.1108155698,0.2012080401,0.9896142483,10.678776741,0,0,0,1652,1501,1498,1521,15.9250001907,753,11.767578125,187.398683885,141.7688652582,,,,,,,,,,,,,,,,
126.933658123,2.8562636375,-0.7790510058,0.084751837,1.6750011444,-2.4392471314,9.8133611679,0,0,0,1490,1486,1498,1522,15.9250001907,789,13.525390625,215.391848282,148.0907265025,,,,,,,,,,,,,,,,
127.035928965,2.9247918129,-0.8215130568,0.0745336935,-1.9541379213,-2.1223406792,10.4939498901,0,0,0,1487,1485,1498,1521,15.9230003357,812,14.6484375,233.24707523,151.9444480951,,,,,,,,,,,,,,,,
127.134462118,2.8099257946,-0.8136945963,0.1138386726,0.5009329319,0.0543375872,11.5688800812,0,0,0,1486,1485,1498,1521,15.9230003357,840,16.015625,255.016802251,146.3791405101,,,,,,,,,,,,,,,,
127.232839108,2.4928948879,-0.7352240682,0.1332068592,-0.36741063,-0.7084367275,10.245926857,0,0,0,1486,1488,1498,1522,15.9230003357,795,13.818359375,220.029740967,130.1232436953,,,,,,,,,,,,,,,,
127.334923983,2.1185178757,-0.65077281,0.1052256078,1.3693050146,0.2406789213,9.9211044312,0,0,0,1485,1490,1498,1521,15.9230003357,805,14.306640625,227.804643475,110.9357434332,,,,,,,,,,,,,,,,
127.433499098,1.7177900076,-0.5547097921,0.0596039519,1.7418786287,-2.8818321228,11.0095663071,0,0,0,1486,1485,1498,1522,15.9180002213,848,16.40625,261.154691131,90.3058427615,,,,,,,,,,,,,,,,
127.535597086,1.3611352444,-0.4642372429,0.0249609426,3.0787837505,0.7243616581,8.9437360764,0,0,0,1482,1482,1498,1521,15.9180002213,821,15.087890625,240.169046308,71.9171123568,,,,,,,,,,,,,,,,
127.633944988,1.0574054718,-0.3941550255,0.0510268398,0.9823752046,0.1224430278,8.7040901184,0,0,0,1332,1483,1498,1522,15.9169998169,810,14.55078125,231.604782492,56.4815955489,,,,,,,,,,,,,,,,
127.73634696,0.7910169363,-0.3299618959,0.0888721645,1.941229701,-0.2542055547,8.9528532028,0,0,0,1117,1480,1498,1521,15.9169998169,816,14.84375,236.267966032,43.083665927,,,,,,,,,,,,,,,,
127.834543943,0.471783936,-0.2552148998,0.0973915234,0.3148683012,0.7160276175,9.9939012528,0,0,0,1097,1469,1498,1521,15.9149999619,844,16.2109375,257.997069695,27.2580188283,,,,,,,,,,,,,,,,
127.936836004,0.0192245152,-0.1549465954,0.1177129,1.1390286684,-0.4793427587,9.0216703415,0,0,0,1097,1465,1498,1522,15.9149999619,831,15.576171875,247.894774797,9.7768037002,,,,,,,,,,,,,,,,
128.035819054,-0.558413446,-0.0351059772,0.1161956266,0.6936299801,-0.0706820562,11.874756813,0,0,0,1097,1472,1498,1521,15.9079999924,851,16.552734375,263.320898312,28.5726893182,,,,,,,,,,,,,,,,
128.137690067,-1.1172523499,0.0831042454,0.077119492,0.6601523757,0.8910092115,11.6888694763,0,0,0,1097,1485,1498,1522,15.9079999924,863,17.138671875,272.641992057,56.1495001092,,,,,,,,,,,,,,,,
128.236107111,-1.5411270857,0.1856168211,0.0707114339,-0.0658524185,-1.0375459194,12.1870746613,0,0,0,1097,1486,1498,1522,15.8990001678,819,14.990234375,238.329738843,77.6937321384,,,,,,,,,,,,,,,,
128.334598064,-2.2817857266,0.348985225,0.0734655187,0.8793509007,0.9731692076,8.8300561905,0,0,0,1097,1486,1498,1522,15.8990001678,826,15.33203125,243.763967416,115.4743907953,,,,,,,,,,,,,,,,
128.436619043,-2.8095061779,0.4704330564,0.0628102049,0.8017448783,0.2492345721,8.5632133484,0,0,0,1097,1489,1498,1522,15.8950004578,813,14.697265625,233.613043838,142.4655865995,,,,,,,,,,,,,,,,
128.535042048,-3.3231182098,0.592143476,0.0362841114,1.2549376488,-0.7796241045,9.6124401093,0,0,0,1097,1485,1498,1522,15.8950004578,843,16.162109375,256.896735915,168.7828861971,,,,,,,,,,,,,,,,
128.6372931,-3.69029212,0.6781718135,0.0307071581,2.5299143791,1.0552108288,10.0279664993,0,0,0,1097,1483,1498,1521,15.8999996185,868,17.3828125,276.386712118,187.6107397587,,,,,,,,,,,,,,,,
128.735827923,-4.3999352455,0.8467246294,0.0185235478,4.6134490967,2.6986608505,9.9900054932,0,0,0,1097,1482,1498,1521,15.8999996185,919,19.873046875,315.981437731,224.0352421186,,,,,,,,,,,,,,,,
128.838120937,-4.7626962662,0.9283661246,0.0352512561,-0.5429652333,-0.5222418308,12.9063997269,0,0,0,1097,1482,1498,1522,15.888999939,835,15.771484375,250.593114272,242.6230720502,,,,,,,,,,,,,,,,
128.936720133,-5.4431290627,1.0684008598,0.0681657121,-0.1093340144,-0.32089293,12.794626236,0,0,0,1097,1481,1498,1522,15.888999939,819,14.990234375,238.17983307,277.3706047635,,,,,,,,,,,,,,,,
129.038732052,-5.7691473961,1.1432420015,0.0781752914,-0.4077914655,-0.8996460438,12.1184301376,0,0,0,1097,1482,1498,1521,15.8830003738,815,14.794921875,234.987749671,294.0925676046,,,,,,,,,,,,,,,,
129.137247086,-6.2934603691,1.2674376965,0.0799709782,-0.4772388041,0.7067344189,11.4205875397,0,0,0,1097,1481,1498,1521,15.8830003738,811,14.599609375,231.88560116,321.0157203678,,,,,,,,,,,,,,,,
129.239333153,-6.5081586838,1.3274260759,0.1070229858,1.0707291365,0.0453671254,12.8248443604,0,0,0,1097,1482,1498,1522,15.8780002594,811,14.599609375,231.812601443,332.1507314458,,,,,,,,,,,,,,,,
129.337749958,-6.8634262085,1.4133847952,0.159784615,-0.0728737265,0.7804140449,11.3706769943,0,0,0,1097,1482,1498,1521,15.8780002594,800,14.0625,223.284378648,350.4632898822,,,,,,,,,,,,,,,,
129.440103054,-7.0121951103,1.4467176199,0.2065879107,0.481420368,1.8460357189,10.9149227142,0,0,0,1097,1480,1498,1522,15.875,776,12.890625,204.638671875,358.1429557505,,,,,,,,,,,,,,,,
129.538989067,-7.1520667076,1.4957962036,0.2325102091,0.6709468961,1.8615424633,9.8299951553,0,0,0,1097,1480,1498,1522,15.875,838,15.91796875,252.697753906,365.5253940221,,,,,,,,,,,,,,,,
129.636919022,-7.2466807365,1.5448743105,0.2856969535,0.1990694702,0.0640456453,10.1354913712,0,0,0,1097,1479,1498,1522,15.8719997406,779,13.037109375,206.924996618,370.7514028336,,,,,,,,,,,,,,,,
129.73934412,-7.3231720924,1.5840862989,0.3083823323,0.4132636189,2.2293031216,8.448220253,0,0,0,1097,1482,1498,1521,15.8719997406,789,13.525390625,214.674996492,374.9442577242,,,,,,,,,,,,,,,,
129.837450981,-7.390891552,1.6109725237,0.3338778019,2.8353047371,1.1667486429,9.0096998215,0,0,0,1097,1481,1498,1521,15.875,784,13.28125,210.83984375,378.5894372277,,,,,,,,,,,,,,,,
129.93986392,-7.4499955177,1.6394200325,0.3435296714,1.6283226013,1.2953342199,10.6588668823,0,0,0,1097,1483,1498,1521,15.875,784,13.28125,210.83984375,381.7988472083,,,,,,,,,,,,,,,,
130.038100004,-7.4923553467,1.6552664042,0.3684383631,-0.8315723538,1.0155334473,5.8637413979,0,0,0,1097,1481,1498,1522,15.876999855,771,12.646484375,200.788230588,384.0932254593,,,,,,,,,,,,,,,,
130.140763998,-7.5148692131,1.6589030027,0.3770454526,0.1215976328,1.1137719154,8.4442491531,0,0,0,1097,1481,1498,1521,15.876999855,708,9.5703125,151.947850175,385.2511574794,,,,,,,,,,,,,,,,
130.238992929,-7.5499901772,1.6479709148,0.386808604,-0.1217611209,0.1467411965,12.9023981094,0,0,0,1097,1482,1498,1522,15.8830003738,777,12.939453125,205.517338821,386.8713633366,,,,,,,,,,,,,,,,
130.341503143,-7.6008024216,1.6498996019,0.4065808356,1.4125244618,1.4015399218,11.3397035599,0,0,0,1097,1482,1498,1521,15.8830003738,776,12.890625,204.741801694,389.4216035495,,,,,,,,,,,,,,,,
130.439644098,-7.6243948937,1.65419209,0.4175772667,1.7766157389,0.2604984045,7.6123490334,0,0,0,1097,1481,1498,1521,15.8850002289,800,14.0625,223.382815719,390.6472825304,,,,,,,,,,,,,,,,
130.541975021,-7.6556754112,1.6698909998,0.4281876087,3.8673038483,1.4191014767,10.3484039307,0,0,0,1097,1482,1498,1522,15.8850002289,768,12.5,198.562502861,392.3685976894,,,,,,,,,,,,,,,,
130.640381098,-7.6626000404,1.677919507,0.4373174906,-1.0487309694,0.6607840657,10.7863178253,0,0,0,1097,1482,1498,1521,15.8879995346,773,12.744140625,202.478900319,392.8170688714,,,,,,,,,,,,,,,,
130.742644072,-7.6670017242,1.6950669289,0.4185433984,0.1938630193,0.0887557417,9.5267763138,0,0,0,1097,1482,1498,1522,15.8879995346,763,12.255859375,194.721088046,393.1645517741,,,,,,,,,,,,,,,,
130.840883017,-7.6848759651,1.7043542862,0.4113233984,1.1817753315,-0.4535250664,12.7489547729,0,0,0,1097,1480,1498,1522,15.8920001984,755,11.865234375,188.562307042,394.1171433404,,,,,,,,,,,,,,,,
130.939216137,-7.6955943108,1.7211282253,0.3917791247,0.9566346407,0.4487245977,8.6172113419,0,0,0,1097,1479,1498,1522,15.8920001984,751,11.669921875,185.458400753,394.7719121432,,,,,,,,,,,,,,,,
131.041793108,-7.6950030327,1.7478936911,0.3813940585,1.6344312429,3.029045105,8.3895988464,0,0,0,1097,1480,1498,1522,15.8950004578,784,13.28125,211.10547483,395.0115993756,,,,,,,,,,,,,,,,
131.140041113,-7.6703157425,1.7669225931,0.3665808737,0.9405068159,1.117372632,12.2804031372,0,0,0,1097,1478,1498,1521,15.8950004578,687,8.544921875,135.821537115,393.9864863692,,,,,,,,,,,,,,,,
131.242447138,-7.6194176674,1.776881814,0.3771544397,3.0109727383,2.6073007584,7.0040869713,0,0,0,1097,1480,1498,1521,15.8999996185,727,10.498046875,166.918941307,391.6474181027,,,,,,,,,,,,,,,,
131.340665102,-7.6064376831,1.7666935921,0.3722094893,2.1543674469,1.3166520596,10.1058292389,0,0,0,1097,1482,1498,1521,15.8999996185,721,10.205078125,162.260738294,390.888860097,,,,,,,,,,,,,,,,
131.442877054,-7.5879001617,1.7265789509,0.3842102289,-0.3581703007,0.8386157751,13.0239725113,0,0,0,1097,1482,1498,1521,15.9099998474,711,9.716796875,154.594236798,389.5668146724,,,,,,,,,,,,,,,,
131.54174304,-7.5948748589,1.7091914415,0.3393756449,2.2335083485,0.6342106462,9.4741973877,0,0,0,1097,1482,1498,1521,15.9099998474,724,10.3515625,164.693357795,389.6108165028,,,,,,,,,,,,,,,,
131.643950939,-7.6137366295,1.6878021956,0.3442644179,3.0326724052,0.496770829,4.9805059433,0,0,0,1097,1481,1498,1521,15.9160003662,703,9.326171875,148.435354978,390.3081465467,,,,,,,,,,,,,,,,
131.742047071,-7.5961923599,1.7212406397,0.2683579922,1.8999046087,0.4656228721,8.5115852356,0,0,0,1097,1483,1498,1521,15.9160003662,769,12.548828125,199.727153033,389.6691664744,,,,,,,,,,,,,,,,
131.844577074,-7.5689854622,1.7586613894,0.2103357017,2.4524328709,0.6353088617,7.8721079826,0,0,0,1097,1484,1498,1522,15.9239997864,768,12.5,199.04999733,388.6729728093,,,,,,,,,,,,,,,,
131.942790031,-7.5642485619,1.7952539921,0.1666711867,1.8412832022,1.6661958695,10.4012861252,0,0,0,1097,1484,1498,1521,15.9239997864,751,11.669921875,185.831833445,388.8077046781,,,,,,,,,,,,,,,,
132.045145035,-7.5686645508,1.8036061525,0.1185031608,3.678391695,1.7260559797,8.9955825806,0,0,0,1097,1483,1498,1521,15.9239997864,768,12.5,199.04999733,389.0749324841,,,,,,,,,,,,,,,,
132.143563986,-7.5480155945,1.7988517284,0.1227225214,1.7703875303,-0.5524770617,6.7904014587,0,0,0,1097,1483,1498,1521,15.9230003357,749,11.572265625,184.265189432,388.0189034469,,,,,,,,,,,,,,,,
132.24168992,-7.5487179756,1.7871602774,0.1025865078,-2.1844921112,0.4456347227,11.6117420197,0,0,0,1097,1483,1498,1522,15.9230003357,763,12.255859375,195.150052942,387.9033672316,,,,,,,,,,,,,,,,
132.344295979,-7.5463690758,1.727434516,0.1428609639,1.835718751,1.55438447,11.6822576523,0,0,0,1097,1486,1498,1521,15.9219999313,791,13.623046875,216.906151408,387.1437894706,,,,,,,,,,,,,,,,
132.442544937,-7.5460915566,1.682353735,0.1630778313,-0.4696701765,0.7113167048,7.3374834061,0,0,0,1097,1486,1498,1521,15.9219999313,789,13.525390625,215.351268602,386.6536119362,,,,,,,,,,,,,,,,
132.544789076,-7.548640728,1.675322175,0.1761958003,0.5455269217,0.8886122704,6.528128624,0,0,0,1132,1483,1498,1521,15.9169998169,735,10.888671875,173.314988241,386.7160657075,,,,,,,,,,,,,,,,
132.643162966,-7.4936137199,1.6573377848,0.1904517561,0.6534210444,1.3667616844,9.0963401794,0,0,0,1325,1488,1498,1521,15.9169998169,777,12.939453125,205.957273021,383.8531196545,,,,,,,,,,,,,,,,
132.745499134,-7.3469753265,1.6286031008,0.2201777548,1.0272347927,1.1081702709,7.8621001244,0,0,0,1488,1488,1498,1522,15.9139995575,775,12.841796875,204.364349786,376.4268612621,,,,,,,,,,,,,,,,
132.843968153,-6.9732394218,1.5848681927,0.2497267872,2.8573071957,0.6910743713,8.2899694443,0,0,0,1489,1491,1498,1522,15.9139995575,773,12.744140625,202.810248267,357.7717103483,,,,,,,,,,,,,,,,
132.946166039,-6.4920744896,1.5258734226,0.2824665606,1.2071348429,-0.03317656,12.1564683914,0,0,0,1489,1488,1498,1521,15.9149999619,762,12.20703125,194.274901879,333.7480645568,,,,,,,,,,,,,,,,
133.044579983,-5.7781195641,1.4114695787,0.2545196116,0.8418255448,-0.7205320001,10.1754379272,0,0,0,1488,1488,1498,1522,15.9149999619,759,12.060546875,191.943603056,297.67302658,,,,,,,,,,,,,,,,
133.147148132,-5.0135769844,1.2632001638,0.1813014299,0.1010749638,-1.1795688868,9.9782962799,0,0,0,1488,1485,1498,1521,15.9130001068,787,13.427734375,213.675538543,258.6720850846,,,,,,,,,,,,,,,,
133.245433092,-4.4909033775,1.1509877443,0.0876863822,0.3549063206,-1.338090539,13.5867424011,0,0,0,1488,1486,1498,1522,15.9130001068,856,16.796875,267.288673669,231.8441008264,,,,,,,,,,,,,,,,
133.347569942,-3.3607001305,0.9016765952,-0.0910284668,-0.4303275347,-0.4304533303,10.7530345917,0,0,0,1488,1484,1498,1521,15.904999733,775,12.841796875,204.248775868,174.0374401619,,,,,,,,,,,,,,,,
133.445812941,-3.0766084194,0.8261294365,-0.1220586225,-0.1220714599,0.9092263579,8.7016468048,0,0,0,1488,1485,1498,1522,15.904999733,800,14.0625,223.664058745,159.3965771237,,,,,,,,,,,,,,,,
133.544585943,-2.3931231499,0.6698201895,-0.2267550975,0.1245112345,1.0638166666,9.4201946259,0,0,0,1489,1485,1498,1522,15.8839998245,811,14.599609375,231.90019275,124.770943844,,,,,,,,,,,,,,,,
133.646563053,-1.8375371695,0.5605403185,-0.2983262837,-1.6221244335,-0.2162730098,12.400103569,0,0,0,1493,1622,1498,1522,15.8839998245,787,13.427734375,213.286130456,97.2078555147,,,,,,,,,,,,,,,,
133.74536705,-1.4065111876,0.4733200669,-0.3323588669,1.3028782606,1.0761538744,10.4542350769,0,0,0,1527,1743,1498,1522,15.8789997101,823,15.185546875,241.131294426,76.0389377717,,,,,,,,,,,,,,,,
133.847204924,-0.938444078,0.1691808254,-0.2922378778,0.3418506086,-1.1402451992,12.1355066299,0,0,0,1570,1901,1498,1522,15.8789997101,807,14.404296875,228.725825902,49.8673845423,,,,,,,,,,,,,,,,
133.945583105,-0.8095213175,-0.1249915808,-0.2451336384,0.7624981403,0.7239457965,11.5467205048,0,0,0,1570,1901,1498,1521,15.873000145,810,14.55078125,230.964552891,42.750384777,,,,,,,,,,,,,,,,
134.047919989,-0.7536091208,-0.3921521902,-0.227054745,0.5438269377,-0.2896774709,11.6237211227,0,0,0,1570,1901,1498,1521,15.873000145,824,15.234375,241.815236584,43.9677127122,,,,,,,,,,,,,,,,
134.146492004,-0.6951403022,-1.0095462799,-0.2567853034,0.6519884467,-0.7897271514,9.6664228439,0,0,0,1570,1901,1498,1521,15.875,815,14.794921875,234.869384766,62.6167394361,,,,,,,,,,,,,,,,
134.249042034,-0.71405375,-1.5340453386,-0.287448734,-0.3274280727,-0.467880398,11.4020853043,0,0,0,1570,1901,1498,1522,15.875,819,14.990234375,237.969970703,85.8165868793,,,,,,,,,,,,,,,,
134.347223997,-0.7197188735,-1.8610262871,-0.3043860495,0.1608333886,-0.6821466088,13.5827913284,0,0,0,1570,1901,1498,1522,15.875,799,14.013671875,222.467041016,100.9215656498,,,,,,,,,,,,,,,,
134.449574947,-0.7520750761,-2.4971859455,-0.3227672279,0.0364382863,2.959659338,9.794084549,0,0,0,1570,1901,1498,1521,15.875,856,16.796875,266.650390625,131.3938093091,,,,,,,,,,,,,,,,
134.548280954,-0.7821367383,-2.9711313248,-0.3401684463,1.3544991016,0.8284366727,10.6378221512,0,0,0,1570,1901,1498,1522,15.8719997406,815,14.794921875,234.824996162,154.5564120189,,,,,,,,,,,,,,,,
134.645905972,-0.8079041243,-3.2997846603,-0.3350432217,-0.6671891212,-2.3558843136,9.0234003067,0,0,0,1570,1901,1498,1522,15.8719997406,839,15.966796875,253.424995858,170.6864218298,,,,,,,,,,,,,,,,
134.748574018,-0.8700378537,-3.946895361,-0.3291120529,-1.9603046179,0.4482863545,10.1997385025,0,0,0,1570,1900,1498,1521,15.8739995956,827,15.380859375,244.155755499,202.7514710238,,,,,,,,,,,,,,,,
134.846668005,-0.9242171049,-4.4523591995,-0.3550852835,-0.730043292,-1.5426534414,13.3583574295,0,0,0,1569,1900,1498,1521,15.8739995956,807,14.404296875,228.653802769,228.0557237657,,,,,,,,,,,,,,,,
134.949375153,-0.9828919768,-4.9660234451,-0.3691678643,-0.1794531643,-1.2558444738,11.5238456726,0,0,0,1569,1900,1498,1521,15.8719997406,828,15.4296875,244.899995998,253.7900234809,,,,,,,,,,,,,,,,
135.047549963,-1.0295591354,-5.4579319954,-0.3707049489,-1.6744701862,1.1325811148,12.2583494186,0,0,0,1566,1898,1498,1522,15.8719997406,741,11.181640625,177.474997099,278.3273065962,,,,,,,,,,,,,,,,
135.149919987,-1.0614179373,-5.7749056816,-0.3998223245,-1.3127883673,-1.0263826847,12.4720306396,0,0,0,1564,1896,1498,1522,15.8760004044,755,11.865234375,188.372465736,294.2617948365,,,,,,,,,,,,,,,,
135.248208046,-1.1244702339,-6.3012318611,-0.4633328021,-1.30240345,0.7274197936,7.8639593124,0,0,0,1564,1895,1498,1522,15.8760004044,793,13.720703125,217.829888361,320.8762750647,,,,,,,,,,,,,,,,
135.350438118,-1.1668384075,-6.5886311531,-0.449156791,0.166905582,0.0147069292,7.7694468498,0,0,0,1563,1892,1498,1522,15.8789997101,760,12.109375,192.284762114,335.3107296364,,,,,,,,,,,,,,,,
135.448969126,-1.1949654818,-6.7223205566,-0.4417714179,0.3811882734,0.6800919175,5.5542373657,0,0,0,1562,1882,1498,1522,15.8789997101,784,13.28125,210.8929649,342.0990286235,,,,,,,,,,,,,,,,
135.551350117,-1.2204092741,-6.8268752098,-0.4510912299,-2.4480011463,0.4994393587,9.8033771515,0,0,0,1561,1875,1498,1521,15.8809995651,734,10.83984375,172.14755388,347.4877955561,,,,,,,,,,,,,,,,
135.649516106,-1.2568361759,-6.926990509,-0.4175593555,-1.7549055815,-0.6285911798,10.6064577103,0,0,0,1555,1857,1498,1521,15.8809995651,713,9.814453125,155.86332581,352.6229945005,,,,,,,,,,,,,,,,
135.751709938,-1.285423398,-6.9108552933,-0.3699660897,1.3309524059,1.569494009,10.5038909912,0,0,0,1543,1820,1498,1522,15.8970003128,663,7.373046875,117.209328478,351.9556403319,,,,,,,,,,,,,,,,
135.850252151,-1.2982110977,-6.7606716156,-0.3289938569,1.8264262676,-0.2381545901,7.2296600342,0,0,0,1514,1745,1498,1522,15.8970003128,709,9.619140625,152.915481524,344.6021971275,,,,,,,,,,,,,,,,
135.948693037,-1.2826441526,-6.4780392647,-0.3523068428,1.3838626146,-2.3915500641,10.9365186691,0,0,0,1489,1602,1498,1522,15.920999527,712,9.765625,155.478511006,330.6595259806,,,,,,,,,,,,,,,,
136.051049948,-1.2446908951,-5.981549263,-0.3122434914,-2.2136611939,0.7806003094,11.6282138824,0,0,0,1488,1522,1498,1522,15.920999527,692,8.7890625,139.930659905,305.8826695318,,,,,,,,,,,,,,,,
136.149270058,-1.1679940224,-5.3782014847,-0.3070814908,1.6442728043,-1.83266747,11.1121292114,0,0,0,1488,1487,1499,1522,15.9250001907,767,12.451171875,198.284914484,275.6064235844,,,,,,,,,,,,,,,,
136.251624107,-1.0850943327,-4.6192193031,-0.3513016701,-0.4930262268,-3.9664976597,14.1889848709,0,0,0,1488,1488,1507,1520,15.9250001907,764,12.3046875,195.952150784,237.8971917888,,,,,,,,,,,,,,,,
136.350269079,-0.994314909,-3.8193016052,-0.4009097815,-2.5942587853,3.9656655788,10.4882745743,0,0,0,1487,1489,1560,1521,15.9259996414,976,22.65625,360.823429375,198.346007917,,,,,,,,,,,,,,,,
136.452294111,-0.8777247071,-2.9614696503,-0.4141112864,0.7645618916,-0.4343163967,13.6063299179,0,0,0,1488,1491,1601,1520,15.9259996414,970,22.36328125,356.157609168,155.8219441271,,,,,,,,,,,,,,,,
136.550708055,-0.7846337557,-2.3298056126,-0.4083434045,-0.1248971745,-2.876940012,15.0282583237,0,0,0,1488,1494,1627,1520,15.9259996414,976,22.65625,360.823429375,124.6032569707,,,,,,,,,,,,,,,,
136.653264999,-0.7805896401,-1.8864854574,0.0822810158,0.4717772007,-0.4466674328,16.1204357147,0,0,0,1488,1494,1635,1520,15.9259996414,981,22.900390625,364.711612882,102.163077146,,,,,,,,,,,,,,,,
136.751959085,-0.8276136518,-1.7007932663,0.7582563758,-0.1677927822,1.4341425896,14.0731220245,0,0,0,1488,1492,1635,1520,15.7510004044,967,22.216796875,349.936776563,101.8895826714,,,,,,,,,,,,,,,,
136.853899002,-0.8523186445,-1.5521615744,1.1220684052,-0.8261040449,0.6425480247,11.3431758881,0,0,0,1488,1493,1635,1520,15.7510004044,736,10.9375,172.276566923,104.8175811917,,,,,,,,,,,,,,,,
136.952283144,-0.7699735165,-1.3523324728,1.1743793488,1.0989100933,1.1261075735,10.3987255096,0,0,0,1488,1490,1635,1520,15.7119998932,809,14.501953125,227.854685951,97.4785769796,,,,,,,,,,,,,,,,
137.054301977,-0.6328779459,-1.007047534,1.1770006418,-1.2308348417,-3.6018309593,14.4551534653,0,0,0,1487,1491,1633,1520,15.7119998932,789,13.525390625,212.510936055,83.6661481864,,,,,,,,,,,,,,,,
137.152729034,-0.579601109,-0.8732859492,1.1615605354,-0.4230706394,-1.4213075638,10.2323884964,0,0,0,1488,1490,1630,1522,15.7349996567,753,11.767578125,185.162837757,78.2270520987,,,,,,,,,,,,,,,,
137.25132513,-0.4896806479,-0.7035863996,1.1010358334,0.4342840314,-1.7650702,6.8433675766,0,0,0,1488,1489,1627,1522,15.7349996567,806,14.35546875,225.883295853,69.7692780717,,,,,,,,,,,,,,,,
137.353270054,-0.4154215455,-0.5861223936,1.0587505102,-0.1743956655,-0.6685677171,9.0774211884,0,0,0,1487,1490,1620,1522,15.7690000534,707,9.521484375,150.144287618,63.9739627425,,,,,,,,,,,,,,,,
137.45211792,-0.3548111916,-0.4967007041,0.9722750783,-1.1315602064,-0.9694253206,11.0081167221,0,0,0,1488,1488,1611,1520,15.7690000534,720,10.15625,160.153906792,57.4003788973,,,,,,,,,,,,,,,,
137.554155111,-0.304081589,-0.4231565595,0.8402549624,0.6405225396,0.2229673266,7.203815937,0,0,0,1487,1490,1594,1522,15.7910003662,689,8.642578125,136.474954337,49.4357028992,,,,,,,,,,,,,,,,
137.652432919,-0.2555863857,-0.3427658379,0.5816352963,1.321413517,1.3990867138,3.0682489872,0,0,0,1488,1490,1568,1520,15.7910003662,755,11.865234375,187.363920361,36.0940590017,,,,,,,,,,,,,,,,
137.754732132,-0.2091020644,-0.2751304507,0.2396935225,1.2484397888,-0.9947326183,4.103228569,0,0,0,1487,1488,1564,1520,15.8299999237,836,15.8203125,250.435545668,21.0281610565,,,,,,,,,,,,,,,,
137.853199959,-0.1433595568,-0.1823304445,0.1681540161,-0.1267534941,-1.6143920422,10.3801288605,0,0,0,1487,1488,1564,1522,15.8299999237,707,9.521484375,150.72509693,14.3241166087,,,,,,,,,,,,,,,,
137.955461025,-0.1137958467,-0.1487684101,0.1633927524,0.3427215815,-0.8333145976,7.9852118492,0,0,0,1488,1490,1558,1520,15.8240003586,798,13.96484375,220.979692508,12.4276633068,,,,,,,,,,,,,,,,
138.054024935,-0.095596917,-0.1017172337,0.0823706612,-0.0100843096,-0.9650406837,7.0466980934,0,0,0,1487,1490,1557,1522,15.8240003586,819,14.990234375,237.205474125,8.1040255426,,,,,,,,,,,,,,,,
138.156456947,-0.0668651238,-0.0587636679,0.080088906,0.2419857383,0.6786905527,11.2871351242,0,0,0,1488,1488,1557,1522,15.8319997787,787,13.427734375,212.587887653,5.9871417033,,,,,,,,,,,,,,,,
138.254652023,-0.0573088415,-0.0216116067,0.0796461552,0.0637673661,-1.8442361355,9.8450775147,0,0,0,1487,1488,1556,1522,15.8319997787,805,14.306640625,226.502731209,5.0236627316,,,,,,,,,,,,,,,,
138.356791019,-0.0384314433,0.0302848015,0.05617439,-0.2067828476,0.2399467975,7.8341755867,0,0,0,1486,1489,1528,1522,15.8380002975,756,11.9140625,188.694925419,3.7248178237,,,,,,,,,,,,,,,,
138.45558095,-0.0370347314,0.0928871334,-0.0702302903,0.7191224098,0.0204558428,9.1038150787,0,0,0,1486,1487,1524,1522,15.8380002975,855,16.748046875,265.255571389,6.1098045298,,,,,,,,,,,,,,,,
138.554077148,-0.0355628133,0.132499516,-0.0104272608,0.330904752,-2.1848449707,11.3441495895,0,0,0,1486,1489,1520,1522,15.8369998932,752,11.71875,185.589842498,6.8792374573,,,,,,,,,,,,,,,,
138.655803919,-0.0263468865,0.1599795669,0.0188848227,1.9741052389,-0.6014537811,7.1416149139,0,0,0,1486,1489,1505,1522,15.8369998932,776,12.890625,204.148826748,8.1615342893,,,,,,,,,,,,,,,,
138.754492998,-0.0154975718,0.1909970939,0.0293013509,1.6657422781,0.4950485528,10.2502737045,0,0,0,1486,1488,1505,1521,15.8380002975,803,14.208984375,225.041898758,9.692604626,,,,,,,,,,,,,,,,
138.85691309,-0.0104535669,0.2226960659,0.0791798383,1.2285292149,-1.8468540907,9.4524307251,0,0,0,1486,1488,1506,1521,15.8380002975,766,12.40234375,196.428324002,11.8292288022,,,,,,,,,,,,,,,,
138.955076933,-0.0061242594,0.2372165918,0.1040978581,1.2077649832,2.2034437656,10.4075593948,0,0,0,1494,1486,1507,1522,15.8369998932,800,14.0625,222.707810998,12.9562322879,,,,,,,,,,,,,,,,
139.057228088,-0.0151159018,0.2638184726,0.1193949953,-0.5293668509,-1.5534155369,9.1356420517,0,0,0,1508,1486,1507,1522,15.8369998932,827,15.380859375,243.586668279,14.4986069913,,,,,,,,,,,,,,,,
139.155535936,0.0279013403,0.2597239614,0.1407091171,-0.1648555845,-0.4952088892,10.6382369995,0,0,0,1898,1481,1507,1522,15.8339996338,816,14.84375,235.035932064,14.835268497,,,,,,,,,,,,,,,,
139.258183002,0.17437464,0.1844905168,0.2073815316,1.0677798986,-2.0892217159,9.7409191132,0,0,0,1898,1489,1505,1521,15.8339996338,807,14.404296875,228.077631444,16.3898112797,,,,,,,,,,,,,,,,
139.356193066,0.4124372005,0.0881814286,0.2279873788,1.2717607021,-1.8544677496,8.1931962967,0,0,0,1898,1491,1506,1522,15.8339996338,828,15.4296875,244.313666225,23.9717882937,,,,,,,,,,,,,,,,
139.458517075,0.7580890059,-0.021034833,0.231270656,0.7590044737,1.2495234013,9.9475288391,0,0,0,1898,1491,1506,1522,15.8339996338,830,15.52734375,245.859955251,39.6430170835,,,,,,,,,,,,,,,,
139.556828976,1.1260012388,-0.1370413899,0.2357603163,1.2754212618,-2.7504692078,10.9472236633,0,0,0,1898,1492,1507,1522,15.8380002975,831,15.576171875,246.69541479,57.9275853775,,,,,,,,,,,,,,,,
139.65543294,1.5240197182,-0.235729441,0.2146924138,1.3149721623,-0.9084281325,9.5773506165,0,0,0,1898,1491,1507,1522,15.8380002975,859,16.943359375,268.348930822,77.8507755799,,,,,,,,,,,,,,,,
139.757597923,1.8186992407,-0.3096306026,0.225358665,-0.2789237797,-1.0945829153,11.6062765121,0,0,0,1898,1490,1507,1522,15.8260002136,887,18.310546875,289.782718755,92.9290665788,,,,,,,,,,,,,,,,
139.856655121,2.4040546417,-0.4569772482,0.2655199766,-0.1629606187,-0.938878715,14.3097162247,0,0,0,1898,1488,1506,1521,15.8260002136,871,17.529296875,277.418656088,123.0732280354,,,,,,,,,,,,,,,,
139.958704948,2.8698859215,-0.5699765086,0.2893786728,1.2898302078,-1.3584481478,9.4868459702,0,0,0,1898,1487,1506,1521,15.8120002747,875,17.724609375,280.261528306,147.0107006229,,,,,,,,,,,,,,,,
140.056858063,3.3434889317,-0.6824684739,0.3177780509,0.4282426536,-2.9059844017,13.5650815964,0,0,0,1898,1488,1506,1522,15.8120002747,895,18.701171875,295.702934825,171.3597410705,,,,,,,,,,,,,,,,
140.159034967,3.7522535324,-0.796802938,0.3676004112,0.3825737536,-1.1901801825,11.6617040634,0,0,0,1898,1485,1505,1522,15.7939996719,826,15.33203125,242.154096532,192.6748008675,,,,,,,,,,,,,,,,
140.257961988,4.1923289299,-0.9287227988,0.3935229778,-0.4348009527,-1.7709126473,11.7738952637,0,0,0,1898,1486,1505,1522,15.7939996719,871,17.529296875,276.857709092,215.5980532585,,,,,,,,,,,,,,,,
140.360120058,4.6628069878,-1.0877578259,0.4088654816,1.473274827,-0.5298326612,9.087644577,0,0,0,1898,1486,1506,1522,15.779999733,869,17.431640625,275.071284408,240.2714978692,,,,,,,,,,,,,,,,
140.458403111,5.1002821922,-1.2149810791,0.382606715,0.9248888493,-4.6841087341,8.9589147568,0,0,0,1898,1484,1507,1522,15.779999733,919,19.873046875,313.596674381,262.8471293405,,,,,,,,,,,,,,,,
140.560707092,5.423330307,-1.2971237898,0.3690028787,3.2924458981,-1.6101537943,9.2999153137,0,0,0,1784,1488,1506,1522,15.7650003433,802,14.16015625,223.234868142,279.4244301657,,,,,,,,,,,,,,,,
140.65874815,5.872522831,-1.410145998,0.3429611325,-0.3672616184,-3.3786234856,9.2095575333,0,0,0,1605,1490,1507,1522,15.7650003433,804,14.2578125,224.774418957,302.4593298061,,,,,,,,,,,,,,,,
140.761229038,6.0181441307,-1.4544556141,0.3998301327,-0.0479774773,-1.4104218483,10.4685516357,0,0,0,1487,1489,1507,1522,15.7569999695,735,10.888671875,171.572802402,310.2151029781,,,,,,,,,,,,,,,,
140.859599113,5.9350981712,-1.4200923443,0.4897375107,-0.3229899406,-2.3139636517,11.1155881882,0,0,0,1486,1485,1506,1521,15.7569999695,763,12.255859375,193.115575798,306.1122971946,,,,,,,,,,,,,,,,
140.958050013,5.6213350296,-1.3180778027,0.5709838867,1.63179636,-2.4667263031,9.5640583038,0,0,0,1486,1486,1507,1522,15.7740001678,719,10.107421875,159.434474352,290.098083447,,,,,,,,,,,,,,,,
141.060126066,5.1375336647,-1.1653501988,0.6121301651,0.1460009068,-5.0938053131,14.5667552948,0,0,0,1486,1485,1507,1524,15.7740001678,725,10.400390625,164.055763464,265.1744547501,,,,,,,,,,,,,,,,
141.159219027,4.5077924728,-0.9797078371,0.6106597185,-0.0423984006,-2.8604958057,14.7319936752,0,0,0,1486,1486,1507,1524,15.7899999619,718,10.05859375,158.825194929,232.6635216128,,,,,,,,,,,,,,,,
141.260859013,4.0020432472,-0.8383412361,0.5584127307,-0.0363616869,0.2834479809,11.1030378342,0,0,0,1486,1485,1506,1528,15.7899999619,759,12.060546875,190.436034697,206.3431060056,,,,,,,,,,,,,,,,
141.359857082,3.2134900093,-0.6368829012,0.4263045788,0.8564306498,2.3635630608,7.957303524,0,0,0,1486,1485,1506,1535,15.8070001602,740,11.1328125,175.976368971,165.1807605596,,,,,,,,,,,,,,,,
141.461571932,2.4149577618,-0.4765635431,0.2527346015,-2.6669018269,2.1455023289,13.9184989929,0,0,0,1486,1485,1507,1544,15.8070001602,777,12.939453125,204.53393762,123.7235686994,,,,,,,,,,,,,,,,
141.560277939,1.9981735945,-0.4010623693,0.1658214033,-0.5316132903,-0.9057388902,14.2875099182,0,0,0,1486,1485,1507,1547,15.8190002441,808,14.453125,228.633987903,102.238024673,,,,,,,,,,,,,,,,
141.662066936,1.3444076777,-0.3088903427,0.0776121244,2.2027966976,1.0396718979,12.5548496246,0,0,0,1486,1485,1507,1561,15.8190002441,748,11.5234375,182.289260625,69.0809107049,,,,,,,,,,,,,,,,
141.760767937,1.0234494209,-0.2556764781,0.0698417649,1.2037833929,-0.9794105887,7.3846697807,0,0,0,1486,1485,1508,1524,15.8190002441,788,13.4765625,213.185745477,52.8605961638,,,,,,,,,,,,,,,,
141.863095045,0.7916568518,-0.2197153717,0.0255475938,-1.2152732611,-0.9036291242,11.8701286316,0,0,0,1486,1485,1507,1525,15.8240003586,711,9.716796875,153.758597234,41.0989079877,,,,,,,,,,,,,,,,
141.961740017,0.6288810372,-0.1896620691,-0.0087767551,0.6101147532,-0.0381548889,8.7065315247,0,0,0,1487,1480,1508,1523,15.8240003586,803,14.208984375,224.842973845,32.8458555542,,,,,,,,,,,,,,,,
142.063750029,0.5079612136,-0.1489735991,-0.0251058862,1.1508430243,-1.3869351149,11.3966302872,0,0,0,1496,1331,1507,1523,15.8330001831,739,11.083984375,175.492726639,26.4975486259,,,,,,,,,,,,,,,,
142.161988974,0.4225164056,-0.0903816745,0.0028075171,-0.6785767078,-0.0182496868,9.0530405045,0,0,0,1496,1258,1507,1523,15.8330001831,783,13.232421875,209.50893797,21.6042149961,,,,,,,,,,,,,,,,
142.260656118,0.4071226418,0.0560212098,-0.0105384467,3.2829880714,-1.2497829199,8.4383745194,0,0,0,1496,1165,1507,1525,15.8369998932,845,16.259765625,257.505906467,20.554700209,,,,,,,,,,,,,,,,
142.363037109,0.3793390691,0.3256773055,0.0224633925,0.8061301112,-0.8863040805,11.3098716736,0,0,0,1495,1120,1508,1523,15.8369998932,818,14.94140625,236.627049186,25.0234110717,,,,,,,,,,,,,,,,
142.461205959,0.3769731224,0.6466202736,0.0513168722,2.7675206661,0.6610763073,13.5753335953,0,0,0,1489,1104,1508,1523,15.8369998932,798,13.96484375,221.161228977,37.5119959018,,,,,,,,,,,,,,,,
142.563499928,0.3842390478,1.020958066,0.0621801056,0.1567745358,-2.8412895203,9.6548070908,0,0,0,1489,1103,1508,1523,15.8369998932,823,15.185546875,240.493504238,54.6319820233,,,,,,,,,,,,,,,,
142.662322998,0.4124794304,1.4627310038,0.0552741624,1.3012764454,-0.4453655183,10.2913970947,0,0,0,1489,1103,1507,1525,15.8240003586,879,17.919921875,283.564850176,76.0390771743,,,,,,,,,,,,,,,,
142.764594078,0.4325373471,1.7698450089,0.0740165561,0.8921783566,-3.5397348404,11.262670517,0,0,0,1490,1103,1507,1525,15.8240003586,824,15.234375,241.068755463,91.171793373,,,,,,,,,,,,,,,,
142.862580061,0.4926417768,2.3908176422,0.1137648821,1.6705520153,-2.1978890896,10.7159366608,0,0,0,1491,1105,1508,1523,15.8120002747,893,18.603515625,294.158794173,122.1847716258,,,,,,,,,,,,,,,,
142.964586973,0.5500766635,2.9008383751,0.1882793307,0.4152096212,-0.4988027513,14.5228624344,0,0,0,1491,1142,1507,1525,15.8120002747,861,17.041015625,269.452543744,147.9264743086,,,,,,,,,,,,,,,,
143.063167095,0.6072117686,3.3425052166,0.2406723797,2.2666053772,-0.6692083478,10.592839241,0,0,0,1523,1266,1507,1525,15.7919998169,916,19.7265625,311.521871388,170.286306329,,,,,,,,,,,,,,,,
143.165292025,0.6356505752,3.5850424767,0.255520612,2.2199335098,1.8650022745,10.9061412811,0,0,0,1622,1339,1507,1525,15.7919998169,855,16.748046875,264.485153183,182.4956985565,,,,,,,,,,,,,,,,
143.263833046,0.7130503654,3.8629329205,0.4229095578,3.0643203259,1.01786232,11.9517745972,0,0,0,1809,1422,1507,1525,15.7790002823,806,14.35546875,226.514945459,197.5445776651,,,,,,,,,,,,,,,,
143.366528988,0.7941185236,3.9023706913,0.5389640331,0.2697182596,1.6911414862,10.5109052658,0,0,0,1898,1468,1507,1523,15.7790002823,772,12.6953125,200.319339521,200.9328461876,,,,,,,,,,,,,,,,
143.464748144,1.167083621,3.6354801655,0.6259068251,2.8855707645,-2.3770563602,10.9220590591,0,0,0,1898,1489,1507,1523,15.7760000229,842,16.11328125,254.203125369,193.4590367872,,,,,,,,,,,,,,,,
143.562907934,1.4180468321,3.4003760815,0.6680193543,-1.113987565,-1.1062742472,10.9922485352,0,0,0,1898,1490,1507,1523,15.7760000229,864,17.1875,271.150000394,187.2142100068,,,,,,,,,,,,,,,,
143.665194035,2.0595886707,2.8679666519,0.6832795143,3.4310035706,1.4001053572,10.6705417633,0,0,0,1898,1488,1507,1523,15.7700004578,965,22.119140625,348.818857782,179.8194170797,,,,,,,,,,,,,,,,
143.763349056,2.4414618015,2.5455305576,0.6936764717,1.8840960264,-1.6542034149,13.519329071,0,0,0,1898,1486,1507,1523,15.7700004578,864,17.1875,271.046882868,179.733473477,,,,,,,,,,,,,,,,
143.865657091,3.0032222271,2.0975613594,0.6728771329,-0.0703946277,-0.2395356745,13.2230825424,0,0,0,1898,1484,1507,1523,15.7510004044,929,20.361328125,320.711287531,186.2248039184,,,,,,,,,,,,,,,,
143.964090109,3.5170550346,1.6956518889,0.6384261847,1.3221738339,-0.0635878891,11.666343689,0,0,0,1843,1488,1507,1523,15.7510004044,936,20.703125,326.094930247,197.816199021,,,,,,,,,,,,,,,,
144.066803932,4.0243668556,1.3143754005,0.6437880993,2.5729379654,-0.2588677406,12.4094028473,0,0,0,1665,1493,1507,1523,15.734000206,869,17.431640625,274.269437185,214.1119706993,,,,,,,,,,,,,,,,
144.165076017,4.4060702324,0.9732462168,0.6396139264,1.370905757,-2.3758099079,11.2315139771,0,0,0,1535,1489,1507,1523,15.734000206,827,15.380859375,242.002444575,227.8693104951,,,,,,,,,,,,,,,,
144.267071009,4.5031495094,0.8528453112,0.6396452188,0.3720983267,-1.9032529593,9.9384431839,0,0,0,1535,1489,1507,1523,15.7229995728,763,12.255859375,192.698871717,231.3808907126,,,,,,,,,,,,,,,,
144.365402937,4.6171851158,0.4555749595,0.6411759853,0.287886858,-1.3940032721,11.7656383514,0,0,0,1488,1486,1507,1523,15.7229995728,758,12.01171875,188.860248775,234.1850421217,,,,,,,,,,,,,,,,
144.467848063,4.4343905449,0.2243636847,0.6535223722,-1.2815470696,-1.1530034542,12.2779073715,0,0,0,1486,1486,1507,1523,15.7430000305,779,13.037109375,205.243213288,224.3950203251,,,,,,,,,,,,,,,,
144.566148043,4.0666046143,0.0838046521,0.6548806429,3.1346862316,-2.6951870918,8.7872085571,0,0,0,1486,1486,1507,1523,15.7430000305,768,12.5,196.787500381,205.9925057205,,,,,,,,,,,,,,,,
144.664840937,3.5270702839,0.005882103,0.6130641699,1.7602322102,-1.1340512037,10.504576683,0,0,0,1486,1486,1507,1523,15.7600002289,725,10.400390625,163.910158631,178.9979543397,,,,,,,,,,,,,,,,
144.766832113,2.6639859676,-0.0204939358,0.4864440858,-0.0379438885,-1.0581856966,10.8164806366,0,0,0,1486,1484,1505,1523,15.7600002289,735,10.888671875,171.605471242,135.4055859777,,,,,,,,,,,,,,,,
144.865175962,2.2596633434,-0.0042618625,0.3476905525,-1.2763497829,0.86990273,9.4846792221,0,0,0,1486,1486,1505,1525,15.7790002823,751,11.669921875,184.13970056,114.3130057045,,,,,,,,,,,,,,,,
144.967514992,1.5933666229,0.0009155758,0.0880057663,1.3958184719,-1.0035916567,12.2100486755,0,0,0,1486,1488,1493,1523,15.7790002823,783,13.232421875,208.794388501,79.789771402,,,,,,,,,,,,,,,,
145.065933943,1.3672173023,-0.0107477726,0.0254154727,0.2727174163,-0.6915647984,11.2075614929,0,0,0,1486,1488,1493,1523,15.7910003662,784,13.28125,209.724223614,68.3747872497,,,,,,,,,,,,,,,,
145.168359995,1.0711911917,0.0054525114,-0.0656543374,1.0591458082,0.8315742016,8.3193693161,0,0,0,1486,1485,1493,1523,15.7910003662,797,13.916015625,219.74780783,53.6607582661,,,,,,,,,,,,,,,,
145.266591072,0.8326438069,0.0151384752,-0.0871742293,0.5449441671,-3.3481748104,9.2688035965,0,0,0,1487,1488,1493,1523,15.7930002213,779,13.037109375,205.895071244,41.8665806119,,,,,,,,,,,,,,,,
145.368862152,0.6192313433,0.0182024371,-0.1143872067,-0.8209815025,-1.4132018089,11.2107019424,0,0,0,1486,1488,1493,1523,15.7930002213,763,12.255859375,193.556789822,31.4985403748,,,,,,,,,,,,,,,,
145.46729207,0.5407667756,0.0268172119,-0.12720263,0.1756841987,-1.4713332653,9.8580513001,0,0,0,1486,1488,1493,1523,15.7980003357,806,14.35546875,226.787700132,27.8086487233,,,,,,,,,,,,,,,,
145.569693089,0.4274250269,0.0319998898,-0.1458676904,0.1667762399,-2.1008272171,11.6025476456,0,0,0,1486,1485,1493,1523,15.7980003357,771,12.646484375,199.789164402,22.6381055783,,,,,,,,,,,,,,,,
145.668105125,0.3311967254,0.0283524208,-0.1544833481,0.4834454358,-0.1642546058,10.2983789444,0,0,0,1488,1482,1493,1523,15.8009996414,751,11.669921875,184.396431362,18.3275909165,,,,,,,,,,,,,,,,
145.77106595,0.2426849157,0.016585229,-0.1618341357,-0.6919544935,-1.2402086258,10.7008533478,0,0,0,1488,1413,1493,1523,15.8009996414,776,12.890625,203.684761002,14.6083302953,,,,,,,,,,,,,,,,
145.868582964,0.160591498,0.0093777599,-0.1757565886,-0.6343995929,-0.4427102804,9.0865373612,0,0,0,1488,1317,1493,1523,15.8009996414,765,12.353515625,195.197895961,11.913012848,,,,,,,,,,,,,,,,
145.967038155,0.107703723,0.0590334572,-0.2025840431,-0.4350425303,0.1016468704,6.6846628189,0,0,0,1488,1313,1493,1525,15.8009996414,794,13.76953125,217.572358343,11.8453931484,,,,,,,,,,,,,,,,
146.069242001,0.0713207498,0.2049147338,-0.2085889578,2.012168169,-1.201351285,12.8702745438,0,0,0,1488,1412,1493,1525,15.8070001602,790,13.57421875,214.567677956,15.0487583206,,,,,,,,,,,,,,,,
146.167887926,0.0551414117,0.3805145025,-0.2522996366,2.5194487572,-1.6541993618,8.3584957123,0,0,0,1493,1479,1493,1523,15.8070001602,785,13.330078125,210.708547057,22.9938561645,,,,,,,,,,,,,,,,
146.270290136,0.0531302094,0.5067526698,-0.2737528086,1.2187230587,-2.3358879089,9.3702831268,0,0,0,1555,1484,1493,1523,15.8000001907,788,13.4765625,212.92969007,28.9206538531,,,,,,,,,,,,,,,,
146.368826151,0.0662577748,0.5173686147,-0.2180422992,0.9475813508,-2.0783138275,12.1376609802,0,0,0,1755,1488,1493,1523,15.8000001907,766,12.40234375,195.957033615,28.2667127749,,,,,,,,,,,,,,,,
146.470795155,0.1234447658,0.3818779886,-0.232465893,1.1746991873,-0.9981868863,8.2692403793,0,0,0,1838,1488,1493,1523,15.8070001602,826,15.33203125,242.353420425,23.189965491,,,,,,,,,,,,,,,,
146.569816113,0.2582567036,0.241221875,-0.2722852826,-2.1146600246,-0.4220415354,11.3375387192,0,0,0,1877,1490,1493,1523,15.8070001602,843,16.162109375,255.47446548,22.3060413932,,,,,,,,,,,,,,,,
146.671232939,0.4504445195,0.1208520532,-0.2687124908,2.2481741905,-2.2790892124,10.2065582275,0,0,0,1898,1490,1493,1523,15.8030004501,814,14.74609375,233.032526168,26.9124453842,,,,,,,,,,,,,,,,
146.769606113,0.7387508154,0.0242581908,-0.250927031,0.7109579444,0.7007612586,10.2800283432,0,0,0,1898,1493,1493,1523,15.8030004501,815,14.794921875,233.80415705,39.0290149108,,,,,,,,,,,,,,,,
146.872040033,0.9487512708,-0.0329032689,-0.2342560291,1.0463038683,1.1643922329,9.0572109222,0,0,0,1898,1489,1493,1523,15.7950000763,831,15.576171875,246.025635954,48.8898631139,,,,,,,,,,,,,,,,
146.970585108,1.4293607473,-0.1293765903,-0.214104563,-2.4614808559,0.665379703,11.3605365753,0,0,0,1898,1484,1493,1523,15.7950000763,855,16.748046875,264.535401669,72.5543108977,,,,,,,,,,,,,,,,
147.072863102,1.9793711901,-0.2214072049,-0.2045956552,0.9368722439,-3.3277385235,10.1867189407,0,0,0,1898,1485,1493,1523,15.7860002518,884,18.1640625,286.737895199,100.109825201,,,,,,,,,,,,,,,,
147.171011925,2.2602703571,-0.2551583648,-0.1935247332,2.1530041695,0.1826480776,8.9775409699,0,0,0,1898,1484,1493,1523,15.7860002518,851,16.552734375,261.301469012,114.1422325508,,,,,,,,,,,,,,,,
147.269304037,2.6975016594,-0.3230853379,-0.1946822256,0.6846272349,-0.6078054905,14.5605173111,0,0,0,1898,1465,1493,1523,15.7729997635,864,17.1875,271.098433435,136.1873755805,,,,,,,,,,,,,,,,
147.371793985,3.1332497597,-0.3839613795,-0.1832698882,2.8930797577,0.3827511072,11.8204593658,0,0,0,1882,1449,1493,1523,15.7729997635,883,18.115234375,285.731587513,158.1001917261,,,,,,,,,,,,,,,,
147.470576048,3.5959062576,-0.456615448,-0.1522476077,-2.5857326984,-0.4400438666,10.345123291,0,0,0,1897,1485,1493,1523,15.7510004044,874,17.67578125,278.411237617,181.3988617305,,,,,,,,,,,,,,,,
147.572613001,4.0522651672,-0.5170217156,-0.1690424532,-1.00111413,-0.8149322867,11.2052841187,0,0,0,1898,1490,1493,1523,15.7510004044,846,16.30859375,256.876666751,204.4305492746,,,,,,,,,,,,,,,,
147.670845032,4.5065789223,-0.6151386499,-0.2169055194,-1.2284777165,-2.4048161507,11.626206398,0,0,0,1898,1488,1493,1523,15.7370004654,935,20.654296875,325.036679534,227.6768386654,,,,,,,,,,,,,,,,
147.773103952,4.9221615791,-0.6834546924,-0.2746749818,2.0135040283,-0.135749653,9.0552444458,0,0,0,1898,1488,1493,1523,15.7370004654,831,15.576171875,245.122224046,248.8485044809,,,,,,,,,,,,,,,,
147.871533155,5.3878793716,-0.7844426036,-0.3123069406,-0.1043851003,-1.0652263165,12.9096851349,0,0,0,1888,1488,1493,1523,15.7370004654,759,12.060546875,189.796831785,272.6817281484,,,,,,,,,,,,,,,,
147.974034071,5.7732343674,-0.859305501,-0.337618202,0.1477996111,0.233586818,7.3973698616,0,0,0,1843,1488,1493,1525,15.7370004654,806,14.35546875,225.9120184,292.3295531387,,,,,,,,,,,,,,,,
148.072747946,6.0339150429,-0.927329421,-0.3573061228,1.6686356068,-1.9084662199,6.9647636414,0,0,0,1803,1488,1493,1523,15.7110004425,818,14.94140625,234.744440205,305.7602748289,,,,,,,,,,,,,,,,
148.174479008,6.1130261421,-0.929510355,-0.3026255071,-0.2450539023,-1.6273149252,6.768327713,0,0,0,1702,1493,1493,1523,15.7110004425,667,7.568359375,118.90649749,309.5345712178,,,,,,,,,,,,,,,,
148.273597002,5.960477829,-0.9000765085,-0.1856339574,-0.6368777156,-2.7877969742,14.1610240936,0,0,0,1599,1493,1493,1523,15.7170000076,751,11.669921875,183.416162198,301.5455754828,,,,,,,,,,,,,,,,
148.375270128,5.6051874161,-0.8411177993,-0.048705291,1.1450099945,-4.3827214241,13.352481842,0,0,0,1577,1490,1493,1523,15.7170000076,703,9.326171875,146.57944343,283.4077333422,,,,,,,,,,,,,,,,
148.473573923,5.0870103836,-0.7466524243,-0.0175150391,0.6168395877,-4.8306303024,14.173210144,0,0,0,1548,1487,1493,1525,15.7430000305,762,12.20703125,192.175293341,257.0771832649,,,,,,,,,,,,,,,,
148.572076082,4.3866658211,-0.6238151789,0.0141952289,0.5017220974,-0.2972347438,11.2632112503,0,0,0,1501,1484,1493,1523,15.7430000305,761,12.158203125,191.406592168,221.5411017619,,,,,,,,,,,,,,,,
148.674404144,3.8737397194,-0.5355132818,0.0248810872,-0.9312737584,2.0190658569,13.76334095,0,0,0,1535,1484,1493,1523,15.7430000305,687,8.544921875,134.522705339,195.5329445205,,,,,,,,,,,,,,,,
148.772732973,2.8323819637,-0.3458740711,-0.0321487263,-3.1336932182,1.6574552059,12.9603643417,0,0,0,1726,1486,1493,1523,15.7430000305,731,10.693359375,168.345556967,142.6801493022,,,,,,,,,,,,,,,,
148.874923944,2.3915724754,-0.2895451188,-0.0860537291,-1.4476433992,-4.8170571327,15.4008216858,0,0,0,1795,1486,1493,1523,15.7910003662,772,12.6953125,200.471684337,120.5286327518,,,,,,,,,,,,,,,,
148.973266125,1.8816646338,-0.2019607425,-0.1224325448,-0.7315580249,-3.1127665043,11.7768211365,0,0,0,1894,1485,1493,1523,15.7910003662,767,12.451171875,196.616459638,94.82140665,,,,,,,,,,,,,,,,
149.075515985,1.7174503803,-0.1797803938,-0.1119882911,-0.2147959173,-1.0504221916,10.1694831848,0,0,0,1898,1485,1493,1525,15.7969999313,776,12.890625,203.633202239,86.5230919485,,,,,,,,,,,,,,,,
149.174422979,1.7575139999,-0.2082588226,-0.1303129494,-0.6909067631,-2.8590598106,8.7165813446,0,0,0,1891,1485,1493,1523,15.7969999313,799,14.013671875,221.373973647,88.7300493325,,,,,,,,,,,,,,,,
149.276253939,1.9180042744,-0.247257486,-0.1103880405,1.8346041441,-1.9020311832,13.6253223419,0,0,0,1843,1486,1493,1523,15.7849998474,838,15.91796875,251.26513429,96.8512026317,,,,,,,,,,,,,,,,
149.374664068,2.1313359737,-0.2942830324,-0.1117467582,-0.7583402395,-0.8791919351,9.9897403717,0,0,0,1832,1485,1493,1525,15.7849998474,791,13.623046875,215.039792843,107.7228257371,,,,,,,,,,,,,,,,
149.477189064,2.3298158646,-0.3386019468,-0.117050603,2.2811143398,-0.7974669337,15.2978410721,0,0,0,1818,1486,1493,1523,15.7930002213,742,11.23046875,177.362795454,117.8600238098,,,,,,,,,,,,,,,,
149.575348139,2.7950263023,-0.426543057,-0.1954022944,0.7468939424,-1.3724646568,8.7442913055,0,0,0,1804,1486,1493,1523,15.7930002213,781,13.134765625,207.437356422,141.7065018505,,,,,,,,,,,,,,,,
149.67385006,3.1759815216,-0.5064037442,-0.2176779211,3.1128337383,-2.6800484657,9.478053093,0,0,0,1773,1485,1493,1523,15.7930002213,767,12.451171875,196.641360177,161.1729432552,,,,,,,,,,,,,,,,
149.776135921,3.5888979435,-0.5893972516,-0.3078370988,-0.8707561493,0.0023051281,10.0413646698,0,0,0,1732,1487,1493,1525,15.7930002213,739,11.083984375,175.049367687,182.4989126574,,,,,,,,,,,,,,,,
149.874429941,3.7522466183,-0.6382015347,-0.3559712172,-0.0565032251,-1.6851012707,11.1885499954,0,0,0,1675,1492,1493,1523,15.7880001068,763,12.255859375,193.495509121,191.1371980471,,,,,,,,,,,,,,,,
149.977107048,3.9271419048,-0.6837564707,-0.4025595784,-0.4055351019,-2.1611738205,8.7881202698,0,0,0,1486,1490,1493,1525,15.7880001068,762,12.20703125,192.724610679,200.3248653177,,,,,,,,,,,,,,,,
150.075307131,3.7929189205,-0.6673767567,-0.3596965373,0.7484614253,-2.9456346035,11.7439851761,0,0,0,1487,1482,1493,1523,15.8050003052,747,11.474609375,181.356204674,193.3973065468,,,,,,,,,,,,,,,,
150.177418947,3.4076316357,-0.5913668871,-0.2685804069,2.1196463108,-0.4020164311,10.6368179321,0,0,0,1493,1483,1493,1523,15.8050003052,724,10.3515625,163.606448472,173.4488656258,,,,,,,,,,,,,,,,
150.275872946,2.8789675236,-0.4652372003,-0.2144973576,0.9515736699,-2.2017784119,13.5379562378,0,0,0,1498,1446,1493,1523,15.8140001297,716,9.9609375,157.522266917,146.209684793,,,,,,,,,,,,,,,,
150.378234148,2.2569310665,-0.3062873483,-0.2404890656,0.6496278644,0.7015029788,10.1976861954,0,0,0,1541,1306,1493,1523,15.8140001297,723,10.302734375,162.927442743,114.5140250071,,,,,,,,,,,,,,,,
150.476498127,1.9098719358,-0.2079087645,-0.2745574415,-0.8143500686,-0.3577266634,13.0893106461,0,0,0,1545,1242,1493,1523,15.8269996643,759,12.060546875,190.882271342,97.0337396759,,,,,,,,,,,,,,,,
150.578907967,1.4383534193,0.0152871087,-0.3391019702,-1.1585116386,-2.2506976128,11.4616003036,0,0,0,1547,1135,1493,1525,15.8269996643,845,16.259765625,257.343305088,73.8932405687,,,,,,,,,,,,,,,,
150.677212954,1.1511485577,0.2807003558,-0.3877984285,0.5797195435,0.0569059923,9.7971172333,0,0,0,1544,1104,1493,1523,15.8140001297,867,17.333984375,274.119631154,62.3362517478,,,,,,,,,,,,,,,,
150.779662132,0.9359587431,0.6842797995,-0.3286037743,2.996106863,-0.3865521252,11.7894792557,0,0,0,1536,1102,1493,1525,15.8140001297,819,14.990234375,237.05556835,60.2544200303,,,,,,,,,,,,,,,,
150.87787509,0.8783003688,0.8960142732,-0.310487777,-0.7552130818,0.0427379869,8.9396820068,0,0,0,1536,1102,1493,1525,15.7939996719,828,15.4296875,243.696479313,64.6269250251,,,,,,,,,,,,,,,,
150.976701975,0.8070301414,1.2298190594,-0.318287313,3.7324090004,0.2211868465,10.99264431,0,0,0,1540,1104,1493,1523,15.7939996719,831,15.576171875,246.010053483,75.2505711209,,,,,,,,,,,,,,,,
151.07863307,0.7717954516,1.6112520695,-0.3142365217,-0.1959860921,-1.37743783,10.2440185547,0,0,0,1540,1104,1493,1523,15.7939996719,807,14.404296875,227.501460118,90.6993114934,,,,,,,,,,,,,,,,
151.176939964,0.755186677,2.0136284828,-0.3077311218,0.8060189486,1.0135542154,10.4599237442,0,0,0,1540,1103,1493,1523,15.7939996719,851,16.552734375,112.307258129,108.6244105529,,,,,,,,,,,,,,,,
151.279307127,0.7460833788,2.4342663288,-0.2927556932,0.8773900867,-0.7795292735,10.7131481171,0,0,0,1540,1105,1493,1523,15.7939996719,904,19.140625,302.30702497,128.1405367512,,,,,,,,,,,,,,,,
151.377623081,0.7822676301,2.9133355618,-0.2278403044,-0.2301029861,-1.9146646261,11.8964881897,0,0,0,1540,1105,1493,1523,15.7889995575,876,17.7734375,280.624796823,151.2562225584,,,,,,,,,,,,,,,,
151.480040073,0.8169770837,3.3861494064,-0.1127965152,2.015707016,-1.2667945623,10.917304039,0,0,0,1532,1106,1493,1523,15.7889995575,855,16.748046875,264.434904698,174.2568679536,,,,,,,,,,,,,,,,
151.578686953,0.8605643511,3.8015487194,-0.0108600147,0.7674682736,0.0173301082,11.5777435303,0,0,0,1528,1108,1493,1523,15.7770004272,856,16.796875,265.004304051,194.8875419843,,,,,,,,,,,,,,,,
151.680487156,0.9058235884,4.2590117455,0.0404859222,0.9327404499,-0.7877109647,12.8763017654,0,0,0,1525,1108,1493,1523,15.7770004272,925,20.166015625,318.159237131,217.7230840512,,,,,,,,,,,,,,,,
151.779149055,0.9544774294,4.7368707657,0.1198149249,1.2657586336,-1.4227968454,12.0262079239,0,0,0,1525,1116,1493,1523,15.7569999695,863,17.138671875,270.054052212,241.6781301153,,,,,,,,,,,,,,,,
151.881257057,0.9933516383,5.2378520966,0.178654477,-1.5224753618,-0.9527512193,8.1061906815,0,0,0,1507,1146,1493,1523,15.7569999695,887,18.310546875,288.519286551,266.7103273466,,,,,,,,,,,,,,,,
151.980189085,0.9938257337,5.5686116219,0.1471496969,1.7697247267,0.1655288488,9.84628582,0,0,0,1490,1172,1493,1523,15.7419996262,863,17.138671875,269.79696625,282.925688202,,,,,,,,,,,,,,,,
152.08217001,0.9901260138,5.7693810463,0.2333268076,1.590085268,-1.5886461735,11.1684684753,0,0,0,1486,1292,1493,1525,15.7419996262,816,14.84375,233.670306951,292.9187113337,,,,,,,,,,,,,,,,
152.18038702,0.9711364508,5.7395777702,0.339868933,1.9651702642,-2.0950260162,12.1691360474,0,0,0,1486,1404,1493,1523,15.7349996567,751,11.669921875,183.626216697,291.553467986,,,,,,,,,,,,,,,,
152.278985977,0.927036643,5.4917268753,0.3826678693,2.122066021,-0.7639061213,11.3804597855,0,0,0,1485,1446,1493,1523,15.7349996567,752,11.71875,184.394527227,279.1276397482,,,,,,,,,,,,,,,,
152.38112998,0.8850910664,5.2335839272,0.4074000418,1.819865346,-0.298928082,11.6697444916,0,0,0,1486,1486,1493,1523,15.7449998856,748,11.5234375,181.436522119,266.1755140548,,,,,,,,,,,,,,,,
152.479545116,0.7726813555,4.4400067329,0.3837955594,0.2291553766,-1.5156388283,10.796046257,0,0,0,1485,1489,1493,1523,15.7449998856,779,13.037109375,205.269285618,226.1525773496,,,,,,,,,,,,,,,,
152.582206011,0.6780283451,3.6762192249,0.3148602545,0.0594690517,-0.3645985425,10.8649768829,0,0,0,1485,1487,1493,1523,15.7569999695,784,13.28125,209.272655845,187.5729671764,,,,,,,,,,,,,,,,
152.680310965,0.5709176064,2.8709819317,0.2323958427,0.0955259427,-1.9747300148,13.7592182159,0,0,0,1485,1489,1493,1523,15.7569999695,741,11.181640625,176.189110987,146.8204004315,,,,,,,,,,,,,,,,
152.782570124,0.4696299732,2.1510407925,0.0890673995,1.2392539978,1.1398817301,10.0261106491,0,0,0,1488,1495,1493,1523,15.7569999695,751,11.669921875,183.882958628,110.1755622221,,,,,,,,,,,,,,,,
152.881015062,0.4136222303,1.7780957222,-0.0223690867,1.2879173756,-4.5165319443,10.2746925354,0,0,0,1488,1571,1493,1523,15.7569999695,911,19.482421875,306.98452089,91.2853783848,,,,,,,,,,,,,,,,
152.983160973,0.3536925316,1.2739536762,-0.1445349902,2.4585745335,0.2979439497,8.3062267304,0,0,0,1486,1740,1493,1523,15.7580003738,847,16.357421875,257.760260021,66.5008785544,,,,,,,,,,,,,,,,
153.081892967,0.2510219812,0.7571595311,-0.1377732605,1.1793848276,0.8010681868,10.3376941681,0,0,0,1485,1848,1493,1523,15.7580003738,877,17.822265625,280.843268381,40.4748088905,,,,,,,,,,,,,,,,
153.183746099,0.1588032097,0.1988361478,-0.1521573961,-0.9295541048,-0.9237101674,10.0068540573,0,0,0,1485,1851,1493,1525,15.75,882,18.06640625,284.545898438,14.8244853427,,,,,,,,,,,,,,,,
153.282284975,0.0826586261,-0.2049484402,-0.178485021,-0.5495206714,-0.2679468393,11.1673755646,0,0,0,1485,1858,1493,1523,15.75,805,14.306640625,225.329589844,14.2032755316,,,,,,,,,,,,,,,,
153.384429932,-0.0985196084,-1.1713114977,-0.2695159912,-0.0357161053,-3.2323207855,11.0686912537,0,0,0,1485,1861,1493,1523,15.7410001755,877,17.822265625,280.540286331,60.2975042476,,,,,,,,,,,,,,,,
153.482831001,-0.1964372694,-1.6653112173,-0.31008026,2.5105702877,-0.1401216686,11.3624868393,0,0,0,1485,1860,1493,1523,15.7410001755,847,16.357421875,257.482180605,85.2642776741,,,,,,,,,,,,,,,,
153.581357002,-0.2968324125,-2.2284061909,-0.3234128952,-2.2719054222,-4.4063901901,10.0881195068,0,0,0,1485,1856,1493,1523,15.732000351,824,15.234375,239.667192847,113.5616521271,,,,,,,,,,,,,,,,
153.683543921,-0.421220094,-2.8299720287,-0.3375963867,0.3811691999,-1.1756842136,9.3334999085,0,0,0,1485,1844,1493,1523,15.732000351,819,14.990234375,235.826372449,144.0498123144,,,,,,,,,,,,,,,,
153.781763077,-0.5320720077,-3.3636722565,-0.3609308302,-1.2646788359,-1.3677575588,13.1728906631,0,0,0,1486,1823,1493,1523,15.7250003815,767,12.451171875,195.794682484,171.2283762604,,,,,,,,,,,,,,,,
153.884906054,-0.6254024506,-3.8318533897,-0.4038149416,-2.0395362377,0.8458775282,14.1692390442,0,0,0,1486,1824,1493,1523,15.7250003815,795,13.818359375,217.293706444,195.1748903704,,,,,,,,,,,,,,,,
153.982649088,-0.7031514049,-4.2678251267,-0.4799883962,-1.7317436934,1.0194536448,8.5430173874,0,0,0,1486,1815,1493,1523,15.7390003204,771,12.646484375,199.04302163,217.5956230648,,,,,,,,,,,,,,,,
154.085263014,-0.7594125271,-4.6196308136,-0.5341434479,1.0670471191,0.764626801,5.6105093956,0,0,0,1486,1807,1493,1523,15.7390003204,721,10.205078125,160.617727879,235.6003260992,,,,,,,,,,,,,,,,
154.183413029,-0.7819187045,-4.7748951912,-0.5493321419,-1.0088694096,1.3289996386,7.4966955185,0,0,0,1486,1788,1493,1523,15.748000145,708,9.5703125,150.713282638,243.4788838355,,,,,,,,,,,,,,,,
154.285489082,-0.794656992,-4.9227595329,-0.5725405216,-0.172198683,-0.5816642046,11.4974050522,0,0,0,1489,1762,1493,1523,15.748000145,755,11.865234375,186.853712658,250.9623667135,,,,,,,,,,,,,,,,
154.383852005,-0.7805745602,-4.897840023,-0.5994662046,0.2379104495,-1.9554772377,9.131319046,0,0,0,1489,1756,1493,1523,15.7629995346,769,12.548828125,197.807171894,249.7873759089,,,,,,,,,,,,,,,,
154.486354113,-0.7400622964,-4.7916975021,-0.5899301767,-1.9769238234,-1.8284372091,11.0123548508,0,0,0,1490,1731,1493,1523,15.7629995346,614,4.98046875,78.5071265883,244.213404462,,,,,,,,,,,,,,,,
154.584599018,-0.6908729076,-4.5994243622,-0.5655946136,0.4424824119,1.6619116068,8.0468826294,0,0,0,1490,1695,1493,1523,15.7700004578,740,11.1328125,175.564458222,234.2643117559,,,,,,,,,,,,,,,,
154.683105946,-0.6297679544,-4.3077406883,-0.5838130713,0.1336692423,0.68160671,8.3745002747,0,0,0,1490,1628,1493,1523,15.7700004578,791,13.623046875,214.835455455,219.6251079467,,,,,,,,,,,,,,,,
154.785210133,-0.5556892753,-3.8984968662,-0.5715510249,0.624550283,-3.8978219032,11.1199913025,0,0,0,1489,1550,1493,1523,15.7790002823,803,14.208984375,224.203568464,198.9581549002,,,,,,,,,,,,,,,,
154.883964062,-0.476249218,-3.3271048069,-0.5839623213,-1.6988078356,-5.2764015198,14.3090181351,0,0,0,1488,1502,1493,1523,15.7790002823,857,16.845703125,265.808354365,170.5685471185,,,,,,,,,,,,,,,,
154.986016989,-0.3826130331,-2.5391252041,-0.6025307775,0.2531846464,-2.4110677242,11.7574157715,0,0,0,1475,1488,1493,1523,15.7700004578,904,19.140625,301.847665013,131.8767689268,,,,,,,,,,,,,,,,
155.084542036,-0.3094118238,-1.896914959,-0.677296102,1.1927708387,-2.0884575844,11.373044014,0,0,0,1321,1488,1493,1523,15.7700004578,864,17.1875,271.046882868,101.8915115229,,,,,,,,,,,,,,,,
155.186913013,-0.2479619533,-1.263566494,-0.6533207297,0.4417817295,-2.5335640907,11.7934179306,0,0,0,1176,1488,1493,1523,15.7589998245,783,13.232421875,208.529734006,72.1961458615,,,,,,,,,,,,,,,,
155.285125971,-0.2911722362,-0.8403105736,-0.5983949304,-0.7066890597,1.7287192345,10.265955925,0,0,0,1097,1484,1493,1523,15.7589998245,793,13.720703125,216.224558139,53.5952335559,,,,,,,,,,,,,,,,
155.38759613,-0.4373193383,-0.5468766689,-0.5809322,-0.1550375074,-2.7126319408,7.6778826714,0,0,0,1097,1480,1493,1523,15.765999794,800,14.0625,221.709372103,45.4918815734,,,,,,,,,,,,,,,,
155.485782146,-0.6571031809,-0.3353441656,-0.6047700644,0.1063114032,-1.0684403181,12.3047494888,0,0,0,1097,1489,1493,1523,15.765999794,775,12.841796875,202.463766886,47.6966227983,,,,,,,,,,,,,,,,
155.588107109,-0.944720149,-0.1825781465,-0.6634640694,-0.0414419062,-0.6274001002,8.9181575775,0,0,0,1097,1487,1493,1523,15.763999939,837,15.869140625,250.161131844,58.4383331147,,,,,,,,,,,,,,,,
155.686592102,-1.3047384024,-0.0374689773,-0.6749866009,-0.3870833814,-0.1740534455,10.8009252548,0,0,0,1097,1488,1493,1523,15.763999939,800,14.0625,221.681249142,73.4736880514,,,,,,,,,,,,,,,,
155.78885293,-1.6830527782,0.0917001218,-0.6848692298,1.03809762,1.2020841837,8.9337863922,0,0,0,1097,1490,1493,1523,15.767999649,801,14.111328125,222.507416922,90.9686955561,,,,,,,,,,,,,,,,
155.887252092,-2.0961863995,0.218923822,-0.683457613,-1.8513411284,-1.6117897034,13.2269735336,0,0,0,1097,1491,1493,1523,15.767999649,786,13.37890625,210.958589054,110.781760345,,,,,,,,,,,,,,,,
155.985371113,-2.5618503094,0.3380846381,-0.6795555949,1.7501444817,0.165088743,12.1330461502,0,0,0,1097,1490,1493,1523,15.765999794,813,14.697265625,231.717086816,133.5961642119,,,,,,,,,,,,,,,,
156.08782506,-3.005320549,0.4403597713,-0.6501262784,0.1503027231,0.6967352033,12.9013023376,0,0,0,1097,1490,1493,1523,15.765999794,844,16.2109375,255.581637286,155.3104351636,,,,,,,,,,,,,,,,
156.186552048,-3.470189333,0.5337535739,-0.6055086255,-0.0340275876,1.782976985,11.5679340363,0,0,0,1097,1487,1493,1523,15.765999794,823,15.185546875,239.415328903,178.1414296288,,,,,,,,,,,,,,,,
156.288393974,-3.9391314983,0.6168718934,-0.5685942173,-0.7808180451,0.1322831959,9.9688215256,0,0,0,1097,1486,1493,1523,15.765999794,860,16.9921875,267.898824625,201.3739511314,,,,,,,,,,,,,,,,
156.387407064,-4.4256644249,0.6962502003,-0.5166025162,0.6545061469,1.2924177647,12.5535497665,0,0,0,1097,1486,1493,1523,15.7440004349,871,17.529296875,275.981257623,225.4891799122,,,,,,,,,,,,,,,,
156.48913002,-4.8886418343,0.7654973865,-0.4557260573,-0.6138264537,-1.094180584,12.0260753632,0,0,0,1097,1482,1493,1523,15.7440004349,877,17.822265625,280.593757751,248.4576999819,,,,,,,,,,,,,,,,
156.587568998,-5.4085540772,0.8318670392,-0.378583163,-0.1885384619,-0.8805902004,13.0919303894,0,0,0,1097,1485,1493,1523,15.732000351,835,15.771484375,248.116997723,274.2616687956,,,,,,,,,,,,,,,,
156.689867973,-5.8672275543,0.8772967458,-0.2957352698,1.0058817864,1.4798606634,11.4265966415,0,0,0,1097,1490,1493,1523,15.732000351,909,19.384765625,304.961139617,296.9910272379,,,,,,,,,,,,,,,,
156.78857708,-6.2477059364,0.9046749473,-0.2275180519,-0.3858692646,-0.9789707065,12.7927808762,0,0,0,1097,1490,1493,1523,15.7209997177,851,16.552734375,260.225532437,315.8481862064,,,,,,,,,,,,,,,,
156.890814066,-6.6143059731,0.932985127,-0.0910004899,2.8027791977,1.3569092751,11.7238330841,0,0,0,1097,1490,1493,1523,15.7209997177,845,16.259765625,255.6197708,334.0201559867,,,,,,,,,,,,,,,,
156.988898039,-6.8622097969,0.970572412,0.0319610052,0.500015378,1.665705204,11.4869127274,0,0,0,1097,1489,1493,1523,15.7089996338,855,16.748046875,263.095062226,346.5290594216,,,,,,,,,,,,,,,,
157.091287136,-7.0343427658,1.0104944706,0.1164597571,1.0640670061,1.5316272974,11.4460277557,0,0,0,1097,1489,1493,1523,15.7089996338,851,16.552734375,260.026898235,355.3752949239,,,,,,,,,,,,,,,,
157.189552069,-7.1717357636,1.066166997,0.2105758041,0.7382411957,1.7967962027,9.2267446518,0,0,0,1097,1487,1493,1523,15.7159996033,824,15.234375,239.423431457,362.6804657604,,,,,,,,,,,,,,,,
157.288035154,-7.2745995522,1.1187741756,0.2671589553,-0.2861419022,1.4793233872,10.5123739243,0,0,0,1097,1487,1493,1523,15.7159996033,787,13.427734375,211.030268111,368.2486531145,,,,,,,,,,,,,,,,
157.390295982,-7.3633861542,1.1746829748,0.2949865758,-0.2486128062,-0.0173397679,9.8867397308,0,0,0,1097,1487,1493,1523,15.7209997177,798,13.96484375,219.541304651,373.1164457212,,,,,,,,,,,,,,,,
157.488546133,-7.4315695763,1.2069700956,0.3025676608,0.2940182686,0.3550286293,9.4233102799,0,0,0,1097,1488,1493,1523,15.7209997177,757,11.962890625,188.068600139,376.7510795221,,,,,,,,,,,,,,,,
157.591055155,-7.4773526192,1.236992836,0.2717136145,-0.9142937064,0.0326093882,13.6932249069,0,0,0,1097,1485,1493,1523,15.7259998322,762,12.20703125,191.967771389,379.1925030788,,,,,,,,,,,,,,,,
157.689723015,-7.5175080299,1.2443510294,0.2302130759,0.7673792839,2.7108380795,8.7624120712,0,0,0,1097,1486,1493,1523,15.7259998322,743,11.279296875,177.378220764,381.1637919723,,,,,,,,,,,,,,,,
157.791690111,-7.559741497,1.2778975964,0.1804056615,0.789280355,1.2304012775,9.441113472,0,0,0,1097,1486,1493,1523,15.736000061,796,13.8671875,218.214063346,383.4555383974,,,,,,,,,,,,,,,,
157.890550137,-7.5840888023,1.2991784811,0.1195198596,-1.2046605349,-0.161924392,12.4968032837,0,0,0,1097,1485,1493,1523,15.736000061,773,12.744140625,200.541797652,384.7744556353,,,,,,,,,,,,,,,,
157.992439985,-7.607260704,1.3390985727,0.098150745,-0.2330666482,-1.2453118563,10.5121135712,0,0,0,1097,1485,1493,1523,15.7440004349,749,11.572265625,182.193755033,386.2422619768,,,,,,,,,,,,,,,,
158.090642929,-7.6326246262,1.3425543308,0.0819027796,-0.0085569769,-0.576241374,11.0851564407,0,0,0,1097,1485,1493,1523,15.7440004349,814,14.74609375,232.162506413,387.5116736336,,,,,,,,,,,,,,,,
158.193170071,-7.6566953659,1.3386235237,0.0760187581,0.9676572084,-0.8462651372,7.6770653725,0,0,0,1097,1485,1493,1523,15.75,798,13.96484375,219.946289062,388.6601205294,,,,,,,,,,,,,,,,
158.291374922,-7.6904602051,1.328908205,0.0697940663,1.9839515686,-0.2544996142,6.8848118782,0,0,0,1102,1485,1493,1523,15.75,788,13.4765625,212.255859375,390.2372560226,,,,,,,,,,,,,,,,
158.394171,-7.6791462898,1.3102536202,0.0570966303,-1.7860877514,1.2256915569,9.5344400406,0,0,0,1140,1484,1493,1523,15.751999855,734,10.83984375,170.749217178,389.5167272229,,,,,,,,,,,,,,,,
158.491991043,-7.581764698,1.2866843939,0.0830809176,0.1900692582,0.2114198357,11.5610866547,0,0,0,1150,1484,1493,1523,15.751999855,779,13.037109375,205.360544985,384.5309321245,,,,,,,,,,,,,,,,
158.590500116,-7.4072699547,1.2572876215,0.0863720775,0.8558121324,0.486450702,12.0020847321,0,0,0,1192,1484,1493,1523,15.7539997101,823,15.185546875,239.233101066,375.6856414635,,,,,,,,,,,,,,,,
158.692853928,-7.2189049721,1.2387547493,0.0760475472,1.1350917816,2.6938066483,9.1072845459,0,0,0,1218,1483,1493,1524,15.7539997101,679,8.154296875,128.462790605,366.2406502375,,,,,,,,,,,,,,,,
158.791162014,-6.788731575,1.1740540266,0.1024918705,-0.7617134452,-0.2576889992,14.4170093536,0,0,0,1295,1485,1493,1523,15.7489995956,815,14.794921875,233.005218626,344.5133663528,,,,,,,,,,,,,,,,
158.893510103,-6.3422436714,1.1281579733,0.0804599822,-0.3054364622,1.6281939745,8.4603338242,0,0,0,1460,1490,1493,1523,15.7489995956,857,16.845703125,265.302971703,322.1151541331,,,,,,,,,,,,,,,,
158.991852999,-5.8088202477,1.0461761951,0.0732390434,0.1749310195,-0.3828189373,11.6978292465,0,0,0,1488,1490,1483,1524,15.7370004654,873,17.626953125,277.395369532,295.1365838843,,,,,,,,,,,,,,,,
159.094587088,-5.146217823,0.9440069795,0.0695131645,-1.7232586145,4.4179501534,11.347661972,0,0,0,1488,1492,1468,1541,15.7370004654,887,18.310546875,288.153084694,261.6273071525,,,,,,,,,,,,,,,,
159.192496061,-4.655901432,0.8586688042,0.0503848679,1.1452254057,-1.3086788654,10.8961305618,0,0,0,1487,1492,1467,1662,15.7150001526,915,19.677734375,309.235598706,236.7343917491,,,,,,,,,,,,,,,,
159.294907093,-3.5441529751,0.6759737134,-0.0121455677,-1.9393045902,-0.7457984686,13.9583835602,0,0,0,1486,1491,1466,1700,15.7150001526,951,21.435546875,336.859622412,180.4030784586,,,,,,,,,,,,,,,,
159.393188,-2.7026965618,0.548532486,-0.0661548451,-1.6492174864,1.7616945505,13.9706611633,0,0,0,1486,1491,1466,1758,15.6870002747,904,19.140625,300.258989633,137.9296293123,,,,,,,,,,,,,,,,
159.495499134,-2.0316038132,0.4647064209,-0.0709210858,-5.132999897,3.6687066555,13.2962331772,0,0,0,1486,1492,1468,1772,15.6870002747,891,18.505859375,290.301421099,104.2640387651,,,,,,,,,,,,,,,,
159.593816996,-1.4879781008,0.3785172701,-0.0487221032,-0.6002777219,2.2312178612,9.6595964432,0,0,0,1486,1490,1468,1835,15.6789999008,816,14.84375,232.735154777,76.807030856,,,,,,,,,,,,,,,,
159.69234395,-1.2144719362,0.3310714364,-0.029795628,-0.2403938323,-0.2303508222,11.6206703186,0,0,0,1486,1492,1467,1838,15.6789999008,788,13.4765625,211.299022101,62.9570917226,,,,,,,,,,,,,,,,
159.794580936,-0.9207409024,0.2766256928,-0.0290405173,0.0571363047,-0.9594413042,9.6049509049,0,0,0,1486,1492,1467,1854,15.6809997559,768,12.5,196.012496949,48.0918115409,,,,,,,,,,,,,,,,
159.892914057,-0.7205356359,0.2332769483,-0.0219928548,-0.9923382998,1.0321010351,8.5080957413,0,0,0,1486,1489,1467,1696,15.6809997559,772,12.6953125,199.075192214,37.8838165604,,,,,,,,,,,,,,,,
159.995258093,-0.6036798358,0.1572443694,-0.0269877799,-0.5738357306,0.8233186603,7.6329021454,0,0,0,1486,1490,1468,1538,15.6870002747,827,15.380859375,241.279545241,31.2203249552,,,,,,,,,,,,,,,,
160.093537092,-0.4868449867,0.0963215679,-0.0051131216,-0.578666687,2.6152310371,9.3636312485,0,0,0,1489,1500,1468,1524,15.6870002747,759,12.060546875,189.193802141,24.8154200816,,,,,,,,,,,,,,,,
160.195863008,-0.3787456453,0.0403644517,0.0126487548,0.1654348224,-1.5845369101,11.2810497284,0,0,0,1490,1552,1468,1523,15.6909999847,819,14.990234375,235.211767349,19.0550218967,,,,,,,,,,,,,,,,
160.294376135,-0.236102432,0.0032052251,-0.0261893794,-0.7721823454,-3.4992671013,13.5185365677,0,0,0,1490,1777,1468,1524,15.6909999847,848,16.40625,257.430468499,11.8786063427,,,,,,,,,,,,,,,,
160.396636009,-0.0052732788,-0.0192585047,0.0183928069,-0.6418788433,3.1873338223,9.1377420425,0,0,0,1491,1872,1468,1524,15.6969995499,832,15.625,245.265617967,1.3573805824,,,,,,,,,,,,,,,,
160.494859934,0.3873660564,0.0054133143,0.058873333,0.4928675592,-4.4646997452,15.1659326553,0,0,0,1498,1901,1468,1524,15.6969995499,807,14.404296875,226.104241564,19.5925901147,,,,,,,,,,,,,,,,
160.597271919,0.8758917451,0.06176164,0.024852816,-0.1896003336,1.4386512041,13.3299846649,0,0,0,1502,1901,1468,1524,15.6909999847,831,15.576171875,244.405712652,43.9209093648,,,,,,,,,,,,,,,,
160.695785999,1.3537657261,0.105611071,0.0181568023,-0.1872816831,-0.0563232414,11.5264863968,0,0,0,1502,1901,1468,1523,15.6909999847,848,16.40625,257.430468499,67.9000185742,,,,,,,,,,,,,,,,
160.798134089,1.8630160093,0.1436601877,0.0029463153,-0.0975295603,1.113797307,9.4351329804,0,0,0,1502,1901,1468,1523,15.6909999847,858,16.89453125,265.092089585,93.4274528874,,,,,,,,,,,,,,,,
160.896481037,2.3756697178,0.176774174,0.0249914303,-1.7660996914,-0.8350578547,11.2415246964,0,0,0,1502,1901,1468,1524,15.6890001297,867,17.333984375,271.952883108,119.11843149,,,,,,,,,,,,,,,,
160.99479413,2.8765046597,0.2155996412,0.0280352775,-2.7914652824,-1.4534676075,12.7195596695,0,0,0,1502,1901,1468,1524,15.6890001297,867,17.333984375,271.952883108,144.2354692798,,,,,,,,,,,,,,,,
161.09715414,3.3385000229,0.241598323,0.0225977656,-1.0401198864,1.9505723715,10.0494203568,0,0,0,1502,1901,1468,1524,15.6829996109,891,18.505859375,290.227385377,167.365339987,,,,,,,,,,,,,,,,
161.195248127,3.8162107468,0.2767208219,0.0305709448,-0.4956347346,0.5839933753,9.2175559998,0,0,0,1502,1901,1468,1524,15.6829996109,847,16.357421875,256.533440901,191.3176250371,,,,,,,,,,,,,,,,
161.297935009,4.2831959724,0.3076494634,0.0222204272,-0.8587018251,1.4156706333,12.3911838531,0,0,0,1502,1901,1467,1524,15.670999527,892,18.5546875,290.770499036,214.7144014598,,,,,,,,,,,,,,,,
161.396220922,4.7817430496,0.3386744261,0.028235577,-0.7298704386,-0.4758249223,8.7992038727,0,0,0,1502,1901,1468,1524,15.670999527,891,18.505859375,290.005313512,239.6902386785,,,,,,,,,,,,,,,,
161.498391151,5.2776045799,0.3744876385,0.0218201857,-0.4565873444,-0.324663192,10.9128141403,0,0,0,1502,1901,1468,1524,15.6630001068,870,17.48046875,273.796583898,264.5459658248,,,,,,,,,,,,,,,,
161.597233057,5.7353944778,0.4018881619,0.0186070334,-3.0452613831,-0.9716488123,10.6827898026,0,0,0,1501,1900,1468,1524,15.6630001068,843,16.162109375,253.147120867,287.4743907392,,,,,,,,,,,,,,,,
161.699162006,6.1484189034,0.4299741089,-0.0040407977,-2.0281412602,-1.0902030468,11.0974311829,0,0,0,1499,1901,1468,1524,15.6510000229,851,16.552734375,259.066846082,308.1718233148,,,,,,,,,,,,,,,,
161.797621012,6.3940458298,0.4536432624,-0.0048216064,-1.7994441986,0.9034048319,6.8608617783,0,0,0,1496,1901,1468,1523,15.6510000229,739,11.083984375,173.475439707,320.5059965546,,,,,,,,,,,,,,,,
161.899971008,6.7905783653,0.4606056809,0.0019182881,-5.0947084427,1.3732769489,10.3014259338,0,0,0,1493,1895,1468,1524,15.656999588,815,14.794921875,231.644085701,340.3091087834,,,,,,,,,,,,,,,,
161.998240948,6.9524960518,0.4639638066,0.0175302401,-1.9418997765,-0.7574314475,13.7657279968,0,0,0,1493,1892,1468,1524,15.656999588,765,12.353515625,193.418989051,348.3990925413,,,,,,,,,,,,,,,,
162.100363016,7.1483888626,0.4868500829,0.0128386598,-1.6953730583,-1.9887896776,13.9268465042,0,0,0,1491,1889,1468,1524,15.6680002213,786,13.37890625,209.620706086,358.24799778,,,,,,,,,,,,,,,,
162.198821068,7.2323679924,0.48289451,0.0389659368,-3.2272295952,-0.849417448,12.9562339783,0,0,0,1490,1890,1468,1524,15.6680002213,735,10.888671875,170.603713347,362.4287937979,,,,,,,,,,,,,,,,
162.297141075,7.3311719894,0.4843966961,0.057386674,-1.684848547,-0.8966765404,10.1669359207,0,0,0,1488,1885,1468,1524,15.6800003052,741,11.181640625,175.328128413,367.3690791551,,,,,,,,,,,,,,,,
162.399395943,7.3869352341,0.4873096347,0.0724160522,-3.400428772,1.7365943193,9.0385894775,0,0,0,1489,1878,1468,1524,15.6800003052,671,7.763671875,121.734377369,370.1672828515,,,,,,,,,,,,,,,,
162.498348951,7.3955907822,0.4841448665,0.0569093227,-4.0127210617,0.1955658644,10.0130176544,0,0,0,1489,1875,1468,1523,15.704000473,746,11.42578125,179.430474154,370.5819677903,,,,,,,,,,,,,,,,
162.600121975,7.3867721558,0.4714473486,0.0550722107,-5.3879828453,2.4473414421,16.1167678833,0,0,0,1489,1860,1468,1523,15.704000473,695,8.935546875,140.323832352,370.1003189427,,,,,,,,,,,,,,,,
162.698707104,7.3448591232,0.4983100593,0.0964750797,-5.1002321243,-4.2791175842,14.4024810791,0,0,0,1489,1857,1468,1524,15.720000267,780,13.0859375,205.710940994,368.1187848231,,,,,,,,,,,,,,,,
162.800948143,7.2448892593,0.4706581533,0.0912278816,-1.7377984524,0.6243780851,4.4388074875,0,0,0,1489,1815,1468,1524,15.720000267,624,5.46875,85.9687514602,363.0367130304,,,,,,,,,,,,,,,,
162.899356127,7.0264930725,0.4042859077,0.1417637914,-3.0049259663,0.2843280733,12.0593824387,0,0,0,1489,1736,1468,1523,15.7349996567,735,10.888671875,171.333248215,351.9770907517,,,,,,,,,,,,,,,,
163.001616001,6.7009062767,0.3542000055,0.1245661676,2.4575481415,1.7706907988,7.2476840019,0,0,0,1488,1713,1468,1523,15.7349996567,671,7.763671875,122.161374288,335.5708543032,,,,,,,,,,,,,,,,
163.099911928,6.1714782715,0.3008070886,0.1604844332,-0.2618745267,0.4512203634,14.4838886261,0,0,0,1487,1607,1468,1524,15.7550001144,597,4.150390625,65.3894047717,309.044431326,,,,,,,,,,,,,,,,
163.202289104,5.5030450821,0.2484815121,0.2172944695,1.1988830566,0.8990451694,13.0433206558,0,0,0,1487,1592,1468,1524,15.7550001144,694,8.88671875,140.010254923,275.6468080894,,,,,,,,,,,,,,,,
163.300614119,4.7219305039,0.1988534927,0.209785521,-1.9668806791,-3.2161633968,14.2095146179,0,0,0,1487,1551,1468,1524,15.7709999084,741,11.181640625,176.345653273,236.5384765743,,,,,,,,,,,,,,,,
163.399002075,4.1397938728,0.1598348916,0.2090396881,-0.1874898672,0.3844104111,13.6399726868,0,0,0,1488,1562,1467,1523,15.7709999084,713,9.814453125,154.783739335,207.4074377466,,,,,,,,,,,,,,,,
163.501358032,3.5657596588,0.1303499192,0.1807730347,0.2227828354,-1.3754358292,11.0974111557,0,0,0,1488,1601,1468,1524,15.7779998779,740,11.1328125,175.653514266,178.6358862032,,,,,,,,,,,,,,,,
163.599650145,2.6438143253,0.0856602788,-0.0056013474,0.1363270879,-0.0058587636,8.2848081589,0,0,0,1487,1720,1468,1523,15.7779998779,723,10.302734375,162.556541711,132.2603799813,,,,,,,,,,,,,,,,
163.70225811,2.2967102528,0.0786171928,-0.0235698428,-3.626213789,-0.3079043925,12.9786939621,0,0,0,1488,1750,1468,1524,15.7860002518,678,8.10546875,127.952931728,114.9088136938,,,,,,,,,,,,,,,,
163.800892115,1.9114992619,0.0762304366,0.0299746711,1.7417339087,-2.9261162281,9.4426221848,0,0,0,1488,1754,1468,1524,15.7860002518,704,9.375,147.993752361,95.6626754358,,,,,,,,,,,,,,,,
163.903028011,1.8721438646,0.0857912302,0.0369128101,-0.8826376796,-0.8028621078,10.0954036713,0,0,0,1488,1761,1468,1524,15.795999527,776,12.890625,203.620306403,93.723600823,,,,,,,,,,,,,,,,
164.001052141,2.0483193398,0.1053300127,0.0491290018,-0.8045446873,0.6783798337,5.3646507263,0,0,0,1488,1765,1468,1524,15.795999527,761,12.158203125,192.050970812,102.5807022323,,,,,,,,,,,,,,,,
164.103527069,2.222556591,0.1209791973,0.0140232295,-3.3383877277,-1.2110614777,8.623333931,0,0,0,1489,1790,1468,1524,15.7950000763,831,15.576171875,246.025635954,111.2945463325,,,,,,,,,,,,,,,,
164.201677084,2.563223362,0.1246933639,0.0120442258,-1.6222441196,0.4450018108,10.3804855347,0,0,0,1489,1805,1468,1523,15.7950000763,839,15.966796875,252.195557859,128.3141408992,,,,,,,,,,,,,,,,
164.304741144,2.8949742317,0.1664449126,-0.0250005201,-3.1813011169,-3.0702273846,11.4366188049,0,0,0,1489,1802,1468,1523,15.7880001068,832,15.625,246.687501669,144.9931441236,,,,,,,,,,,,,,,,
164.402508974,3.2966318131,0.1831224859,-0.0381444246,-0.6846438646,-0.2775791883,7.3042469025,0,0,0,1489,1806,1468,1523,15.7880001068,859,16.943359375,267.501759622,165.0967152392,,,,,,,,,,,,,,,,
164.505110979,3.7257666588,0.2226266414,-0.0501191616,-1.1613320112,1.7831218243,7.581363678,0,0,0,1490,1808,1468,1523,15.7650003433,864,17.1875,270.9609434,186.6374275678,,,,,,,,,,,,,,,,
164.603188038,4.1496253014,0.243082568,-0.047575295,-1.5640375614,-1.4421155453,11.6496458054,0,0,0,1489,1827,1467,1531,15.7650003433,865,17.236328125,271.730718808,207.8505634198,,,,,,,,,,,,,,,,
164.701478004,4.5718107224,0.2627633214,-0.0674691275,-0.9974920154,0.7773503065,9.6372537613,0,0,0,1489,1831,1467,1582,15.7460002899,791,13.623046875,214.508500043,228.9926304911,,,,,,,,,,,,,,,,
164.803857088,4.9458642006,0.3029370904,-0.0799091384,-1.7183048725,-0.4441356659,12.4925394058,0,0,0,1489,1822,1467,1671,15.7460002899,779,13.037109375,205.282327998,247.7888669912,,,,,,,,,,,,,,,,
164.902066946,5.2391471863,0.3938735425,-0.0566311851,-1.0859421492,1.0044589043,9.9013128281,0,0,0,1489,1805,1468,1702,15.7349996567,811,14.599609375,229.724848504,262.7118511712,,,,,,,,,,,,,,,,
165.004573107,5.4056868553,0.6042681336,-0.007246837,-2.2674996853,-0.5014152527,8.8442783356,0,0,0,1489,1788,1468,1755,15.7349996567,827,15.380859375,242.017816985,271.9680260228,,,,,,,,,,,,,,,,
165.103120089,5.3882679939,0.9113271832,0.0498281606,-5.3349928856,1.3048681021,14.1215581894,0,0,0,1489,1758,1468,1804,15.7399997711,773,12.744140625,200.59277052,273.2509471828,,,,,,,,,,,,,,,,
165.205158949,5.2760314941,1.16538167,0.0908630639,-3.1768984795,0.0549620539,8.4995155335,0,0,0,1489,1788,1467,1828,15.7399997711,783,13.232421875,208.278317284,270.198440317,,,,,,,,,,,,,,,,
165.30418396,4.8118047714,1.7904709578,0.1429906189,-0.886828959,1.1091302633,14.2276954651,0,0,0,1489,1816,1467,1878,15.7489995956,768,12.5,196.862494945,256.8058494558,,,,,,,,,,,,,,,,
165.405869007,4.3241267204,2.4057273865,0.1870485693,-4.4879488945,-1.2641382217,11.9713392258,0,0,0,1489,1823,1468,1894,15.7489995956,759,12.060546875,189.941547857,247.5913130519,,,,,,,,,,,,,,,,
165.504333973,3.9959104061,2.7953116894,0.1820582747,1.9056835175,1.2897074223,8.8620529175,0,0,0,1488,1844,1466,1868,15.7469997406,799,14.013671875,220.67328738,243.9990401101,,,,,,,,,,,,,,,,
165.606482029,3.1892807484,3.6334900856,0.1030917764,-3.6676316261,2.0602197647,11.2059726715,0,0,0,1489,1845,1466,1811,15.7469997406,812,14.6484375,230.668941513,241.7870437422,,,,,,,,,,,,,,,,
165.705264091,2.4628136158,4.1773576737,0.0841889828,-0.22509031,-0.0725967661,11.9422664642,0,0,0,1489,1838,1467,1850,15.7449998856,792,13.671875,215.263670311,242.5018341426,,,,,,,,,,,,,,,,
165.807155132,1.631210804,4.6178984642,0.0749953017,1.3476990461,0.7871000767,15.6242446899,0,0,0,1489,1827,1466,1808,15.7449998856,768,12.5,196.81249857,244.9053858535,,,,,,,,,,,,,,,,
165.905514956,0.8165937662,4.8556523323,0.0084120035,0.043871697,3.0794219971,13.9839611053,0,0,0,1489,1827,1468,1824,15.7460002899,880,17.96875,282.935942709,246.1922811187,,,,,,,,,,,,,,,,
166.004239082,0.2242143601,4.9101924896,-0.0121581899,-2.0945084095,1.4202147722,15.5286188126,0,0,0,1489,1826,1468,1819,15.7460002899,841,16.064453125,252.950883563,245.7662008179,,,,,,,,,,,,,,,,
166.106338978,-0.8423057199,4.7731871605,-0.0796519518,-2.5250380039,3.5492362976,10.8928956985,0,0,0,1489,1827,1468,1816,15.7270002365,950,21.38671875,336.348930839,242.379552708,,,,,,,,,,,,,,,,
166.204713106,-1.5945445299,4.4970269203,-0.1001293734,-0.8863434792,0.7986761332,12.6140470505,0,0,0,1489,1832,1468,1831,15.7270002365,919,19.873046875,312.543412903,238.6202488849,,,,,,,,,,,,,,,,
166.307337999,-2.0283975601,4.2580399513,-0.1198658422,-0.396556139,3.0261213779,14.9967556,0,0,0,1489,1839,1468,1815,15.7019996643,976,22.65625,355.748429894,235.9007667898,,,,,,,,,,,,,,,,
166.405362129,-2.8679022789,3.4867801666,-0.1305121779,1.6750011444,0.5932629108,13.908577919,0,0,0,1489,1840,1468,1817,15.7019996643,968,22.265625,349.614836275,225.8292100244,,,,,,,,,,,,,,,,
166.507539034,-3.1777722836,3.0371358395,-0.1121567264,0.6528381705,-0.2511596978,11.8934383392,0,0,0,1489,1839,1467,1808,15.670999527,935,20.654296875,323.673476559,219.8579650892,,,,,,,,,,,,,,,,
166.605978966,-3.6582791805,1.8849856854,-0.0919412673,0.7847051024,0.3814144731,13.1555728912,0,0,0,1489,1837,1468,1805,15.670999527,959,21.826171875,342.037929129,205.8192823406,,,,,,,,,,,,,,,,
166.708425999,-3.787197113,0.9790533781,-0.0869240016,1.4311417341,-0.3699904084,12.3512983322,0,0,0,1489,1830,1468,1808,15.6450004578,975,22.607421875,353.693125584,195.6333513996,,,,,,,,,,,,,,,,
166.806776047,-3.762847662,0.5064588189,-0.0816659853,-1.6007701159,-3.6109564304,16.4786682129,0,0,0,1489,1829,1468,1808,15.6450004578,976,22.65625,354.457041622,189.8828085677,,,,,,,,,,,,,,,,
166.909009933,-3.4558107853,-0.5427163243,-0.045421198,-0.607375443,-1.9961884022,15.8191995621,0,0,0,1488,1827,1468,1818,15.6219997406,971,22.412109375,350.121966843,174.9230707889,,,,,,,,,,,,,,,,
167.007462025,-3.1788365841,-1.0091384649,-0.0092917951,0.7098903656,-1.6522784233,15.4256238937,0,0,0,1489,1824,1468,1812,15.6219997406,922,20.01953125,312.745111994,166.7591737147,,,,,,,,,,,,,,,,
167.109720945,-2.4221081734,-1.8074938059,0.0022806996,-0.3878098428,-2.2710101605,13.2775793076,0,0,0,1489,1813,1467,1523,15.5970001221,960,21.875,341.184377671,151.1096213317,,,,,,,,,,,,,,,,
167.207991123,-1.7371691465,-2.1935863495,0.0043124012,-2.542794466,-2.8277008534,14.4230270386,0,0,0,1489,1809,1466,1523,15.5970001221,939,20.849609375,325.191359968,139.9070791013,,,,,,,,,,,,,,,,
167.306354046,-1.0000795126,-2.4031443596,0.004763403,-1.8375573158,-0.5833094716,9.8333120346,0,0,0,1490,1796,1467,1523,15.5889997482,952,21.484375,334.919916465,130.1468836988,,,,,,,,,,,,,,,,
167.408880949,-0.2029881179,-2.4924108982,-0.0168805141,-0.8936498761,1.1929192543,13.371052742,0,0,0,1489,1787,1467,1523,15.5889997482,980,22.8515625,356.233002058,125.0360069463,,,,,,,,,,,,,,,,
167.507188082,0.6097242236,-2.4710428715,-0.0331103504,-0.5774632692,1.2696199417,11.1628637314,0,0,0,1489,1758,1466,1523,15.5710000992,967,22.216796875,345.937746345,127.2685428232,,,,,,,,,,,,,,,,
167.60939002,1.3769907951,-2.3393161297,-0.0497989282,-1.569216609,-0.1149090528,11.0593891144,0,0,0,1489,1750,1466,1523,15.5710000992,939,20.849609375,324.649269646,135.7477765722,,,,,,,,,,,,,,,,
167.707865953,2.0926301479,-2.127969265,-0.1457943916,-1.1833338738,-0.1473324001,8.8031635284,0,0,0,1490,1725,1466,1523,15.5520000458,899,18.896484375,293.878125865,149.4038999935,,,,,,,,,,,,,,,,
167.810163975,2.5604851246,-1.9333872795,-0.1763087064,0.0852947086,1.7162731886,9.0341587067,0,0,0,1490,1720,1466,1523,15.5520000458,896,18.75,291.600000859,160.6638976698,,,,,,,,,,,,,,,,
167.908679962,2.9001576901,-1.6964172125,-0.1088237539,-2.8249709606,-0.0023114451,14.5215206146,0,0,0,1490,1701,1467,1523,15.5539999008,773,12.744140625,198.222362017,168.0817404994,,,,,,,,,,,,,,,,
168.010951042,3.0243721008,-1.5699535608,-0.068438299,-1.2323155403,0.7317129374,10.8001689911,0,0,0,1490,1676,1466,1523,15.5539999008,727,10.498046875,163.286620052,170.4132080264,,,,,,,,,,,,,,,,
168.109144926,3.0505788326,-1.3392235041,0.002515649,-3.9789717197,-1.2871177197,13.8333501816,0,0,0,1490,1561,1467,1523,15.5760002136,715,9.912109375,154.391017742,166.5799893169,,,,,,,,,,,,,,,,
168.211535931,2.8530678749,-1.1448167563,0.0642886907,-3.6794979572,-1.9260901213,11.8833141327,0,0,0,1490,1486,1468,1523,15.5760002136,740,11.1328125,173.404689878,153.7427619438,,,,,,,,,,,,,,,,
168.310111046,2.4472811222,-0.9235003591,0.0819978192,-1.512444973,2.0783312321,9.4363613129,0,0,0,1489,1486,1467,1523,15.609000206,753,11.767578125,183.680129377,130.8506920758,,,,,,,,,,,,,,,,
168.408259153,2.08558321,-0.7837833166,0.0343585908,4.8772215843,0.6882020831,6.4217948914,0,0,0,1489,1491,1466,1524,15.609000206,818,14.94140625,233.220413234,111.4131290061,,,,,,,,,,,,,,,,
168.510591984,1.5336680412,-0.6105360985,-0.0680738986,-0.0964243338,-3.8680136204,12.386636734,0,0,0,1488,1492,1466,1523,15.6280002594,812,14.6484375,228.92578505,82.6063866151,,,,,,,,,,,,,,,,
168.608931065,0.8488078117,-0.4299937189,-0.0835279226,-0.0330808237,2.4246716499,5.6132693291,0,0,0,1388,1489,1467,1523,15.6280002594,799,14.013671875,219.005667698,47.7584079862,,,,,,,,,,,,,,,,
168.711429119,0.5125014186,-0.3765256703,-0.0587718263,-0.8269512057,-0.1261276752,10.5723218918,0,0,0,1212,1486,1467,1523,15.6499996185,768,12.5,195.624995231,31.9328753806,,,,,,,,,,,,,,,,
168.809662104,0.3637393415,-0.3938919902,-0.0465819538,-3.4557578564,-1.6691542864,17.7167015076,0,0,0,1153,1488,1466,1523,15.6499996185,805,14.306640625,223.898920323,26.9085064115,,,,,,,,,,,,,,,,
168.912028074,0.1834750324,-0.4737930298,-0.042745959,-0.718890965,1.1362251043,9.7100419998,0,0,0,1097,1487,1467,1523,15.670999527,773,12.744140625,199.713421706,25.4936335,,,,,,,,,,,,,,,,
169.010225058,0.0409911796,-0.6522156596,-0.0507503189,-1.3517848253,-1.7190759182,7.6837859154,0,0,0,1097,1485,1467,1523,15.670999527,832,15.625,244.859367609,32.7735082918,,,,,,,,,,,,,,,,
169.11264801,-0.0840890333,-0.9148650169,-0.0392387062,-0.5584314466,-0.5742653608,8.8335342407,0,0,0,1097,1488,1466,1523,15.670999527,755,11.865234375,185.940082278,45.9779469075,,,,,,,,,,,,,,,,
169.211024046,-0.2097715884,-1.2572002411,-0.0317443609,0.3249844313,0.845808506,7.9968061447,0,0,0,1097,1486,1466,1523,15.670999527,811,14.599609375,228.79047161,63.748809204,,,,,,,,,,,,,,,,
169.313210011,-0.3337535262,-1.6055090427,-0.0365215726,-1.4365352392,2.5141386986,11.9090890884,0,0,0,1097,1483,1467,1523,15.6719999313,819,14.990234375,234.926952095,82.0119583919,,,,,,,,,,,,,,,,
169.41159296,-0.4396747053,-1.9786975384,-0.0510172993,-0.9340798259,-1.1469769478,13.341709137,0,0,0,1097,1483,1466,1523,15.6719999313,832,15.625,244.874998927,101.3799852015,,,,,,,,,,,,,,,,
169.514183044,-0.5469768047,-2.3794019222,-0.0299240388,-1.3134737015,2.1286978722,10.3877916336,0,0,0,1097,1481,1466,1523,15.6719999313,805,14.306640625,224.213670892,122.0822732868,,,,,,,,,,,,,,,,
169.61268115,-0.644803524,-2.8004336357,-0.0316674113,0.7133828998,0.7333179116,10.0769786835,0,0,0,1113,1482,1466,1523,15.6660003662,831,15.576171875,244.016314298,143.6941453005,,,,,,,,,,,,,,,,
169.710590124,-0.7310154438,-3.2039361,-0.0592206977,-1.1850637198,2.6052262783,12.5603628159,0,0,0,1428,1483,1467,1523,15.6660003662,767,12.451171875,195.060063153,164.340326784,,,,,,,,,,,,,,,,
169.81319809,-0.7777686119,-3.5160665512,-0.0912044793,0.1147190779,0.0897711813,8.5105695725,0,0,0,1488,1437,1467,1523,15.670999527,785,13.330078125,208.895647992,180.1108426995,,,,,,,,,,,,,,,,
169.911689043,-0.7824437022,-3.6403465271,-0.0809680149,0.699601233,0.6297574043,8.2449960709,0,0,0,1488,1257,1466,1523,15.670999527,775,12.841796875,201.243792754,186.2182644366,,,,,,,,,,,,,,,,
170.013814926,-0.7955504656,-3.5203809738,-0.0102503803,-2.2343435288,0.846562922,11.137673378,0,0,0,1486,1099,1466,1523,15.6739997864,757,11.962890625,187.506345101,180.4583595619,,,,,,,,,,,,,,,,
170.112064123,-0.9201567769,-3.2469227314,-0.028941296,-0.0422537923,0.3189321458,6.9057717323,0,0,0,1486,1100,1466,1523,15.6739997864,876,17.7734375,278.580855579,168.7456171014,,,,,,,,,,,,,,,,
170.214594126,-1.1063990593,-3.0040857792,-0.0286714435,0.2916078269,-1.5381826162,10.8488788605,0,0,0,1489,1099,1466,1523,15.6850004196,888,18.359375,287.966804579,160.0739852294,,,,,,,,,,,,,,,,
170.312638044,-1.5419983864,-2.5911016464,-0.0366294645,-0.9408236146,-3.7911841869,15.7742395401,0,0,0,1489,1100,1467,1523,15.6850004196,903,19.091796875,299.454841995,150.7722494634,,,,,,,,,,,,,,,,
170.415241957,-1.8945462704,-2.2495048046,-0.0328726955,-0.8239673376,-3.8795719147,10.1594934464,0,0,0,1489,1099,1466,1523,15.6680002213,884,18.1640625,284.59453527,147.060005191,,,,,,,,,,,,,,,,
170.513445139,-2.4118816853,-1.8068314791,-0.0611450858,1.0673320293,2.0328052044,12.1532058716,0,0,0,1488,1099,1466,1523,15.6680002213,893,18.603515625,291.479886929,150.71124692,,,,,,,,,,,,,,,,
170.615983009,-2.8884391785,-1.3968102932,-0.0553603657,0.8932888508,0.6059978008,7.8026762009,0,0,0,1488,1100,1466,1523,15.6479997635,859,16.943359375,265.129683493,160.4464447501,,,,,,,,,,,,,,,,
170.714030981,-3.3270533085,-1.0208215714,-0.0251518413,0.4772773087,0.2628849447,12.9440174103,0,0,0,1488,1102,1466,1523,15.6479997635,831,15.576171875,243.735933816,174.0114436852,,,,,,,,,,,,,,,,
170.81682992,-3.7549679279,-0.6616874337,-0.0185681693,0.4719979465,0.0846329331,12.1951217651,0,0,0,1488,1102,1466,1523,15.6479997635,832,15.625,244.499996305,190.6433789592,,,,,,,,,,,,,,,,
170.915054083,-4.1541781426,-0.3418380916,-0.0139098279,-0.6885154843,0.2653593421,9.5823106766,0,0,0,1489,1102,1466,1523,15.6479997635,831,15.576171875,243.735933816,208.4121086012,,,,,,,,,,,,,,,,
171.013077021,-4.6318302155,0.0145301353,-0.0091468962,0.7620409727,-0.9201619625,12.837389946,0,0,0,1489,1102,1467,1523,15.6370000839,836,15.8203125,247.38222789,231.5931018822,,,,,,,,,,,,,,,,
171.115509033,-5.0339889526,0.2806363106,0.012176387,2.1097898483,0.318130374,12.2681188583,0,0,0,1489,1103,1467,1523,15.6370000839,811,14.599609375,228.294093022,252.0910042927,,,,,,,,,,,,,,,,
171.214169979,-5.4353113174,0.5367364287,0.0173289739,1.1324472427,0.7505198717,11.1293983459,0,0,0,1489,1104,1467,1523,15.6339998245,816,14.84375,232.067184895,273.0887923565,,,,,,,,,,,,,,,,
171.316245079,-5.8224797249,0.7704350352,-0.0100018419,0.3262927532,-0.6006366611,11.6548519135,0,0,0,1489,1104,1467,1523,15.6339998245,786,13.37890625,209.165817965,293.6619669245,,,,,,,,,,,,,,,,
171.414597034,-6.072991848,0.9156898856,-0.0141427126,0.5691218376,1.2724405527,10.9588890076,0,0,0,1489,1104,1466,1523,15.6400003433,768,12.5,195.500004291,307.0827167425,,,,,,,,,,,,,,,,
171.517040014,-6.4691786766,1.125133276,-2.17726919808E-05,0.0481134951,0.9182246327,8.4360275269,0,0,0,1489,1103,1466,1523,15.6400003433,781,13.134765625,205.427738884,328.3146266884,,,,,,,,,,,,,,,,
171.615334988,-6.5996208191,1.1908662319,-0.0094188601,0.1892410219,0.9010676742,11.8525075912,0,0,0,1489,1105,1466,1523,15.6520004272,783,13.232421875,207.11387284,335.3104757277,,,,,,,,,,,,,,,,
171.717600107,-6.7809710503,1.2901818752,-0.0032470112,0.233552441,1.9115794897,10.1490039825,0,0,0,1489,1105,1466,1523,15.6520004272,754,11.81640625,184.950395673,345.1309468853,,,,,,,,,,,,,,,,
171.816452026,-6.9075126648,1.3541332483,-0.0152939772,1.1660923958,-0.6097910404,10.4247131348,0,0,0,1489,1105,1466,1523,15.6669998169,759,12.060546875,188.952585682,351.9504296569,,,,,,,,,,,,,,,,
171.918401003,-7.0680656433,1.4097274542,0.0079007316,1.3339135647,-2.0548911095,10.9581880569,0,0,0,1489,1105,1466,1523,15.6669998169,742,11.23046875,175.94775185,360.364211093,,,,,,,,,,,,,,,,
172.016580105,-7.1386270523,1.4461137056,-0.014791023,-0.9723031521,2.5426785946,8.3574066162,0,0,0,1489,1105,1466,1523,15.6829996109,758,12.01171875,188.379780482,364.1821653229,,,,,,,,,,,,,,,,
172.118950129,-7.1964440346,1.4706810713,-0.0107024182,1.2947669029,3.3885462284,10.9369220734,0,0,0,1489,1103,1466,1523,15.6829996109,730,10.64453125,166.938179452,367.2595271003,,,,,,,,,,,,,,,,
172.217688084,-7.2522239685,1.4878718853,-0.0113504352,1.2397083044,-0.5541555882,9.0855121613,0,0,0,1489,1105,1466,1523,15.6969995499,771,12.646484375,198.511859542,370.1643015903,,,,,,,,,,,,,,,,
172.316090107,-7.2953166962,1.5212423801,-0.0157797821,0.5701650977,0.3938604295,10.1000146866,0,0,0,1489,1103,1467,1523,15.6969995499,767,12.451171875,195.446039318,372.612644305,,,,,,,,,,,,,,,,
172.418533087,-7.3308124542,1.5641429424,0.0013829304,1.6626294851,-0.4260596931,9.3470926285,0,0,0,1489,1103,1466,1523,15.704000473,752,11.71875,184.031255543,374.7911294822,,,,,,,,,,,,,,,,
172.516283989,-7.3527607918,1.5850212574,-0.0064296587,0.678242147,0.1366593391,8.5317850113,0,0,0,1489,1103,1467,1523,15.704000473,745,11.376953125,178.663677256,376.0831855732,,,,,,,,,,,,,,,,
172.618708134,-7.3707485199,1.5989463329,-0.0018181638,0.3675120473,2.7700083256,10.7240028381,0,0,0,1489,1103,1467,1523,15.704000473,711,9.716796875,152.592582721,377.109289281,,,,,,,,,,,,,,,,
172.717378139,-7.3918414116,1.6125284433,-0.0205135867,1.5444034338,-2.6100997925,9.790599823,0,0,0,1490,1103,1467,1524,15.704000473,772,12.6953125,199.367193505,378.2855675344,,,,,,,,,,,,,,,,
172.819514036,-7.4141569138,1.6253644228,-0.0303657223,0.1785454899,-2.2215774059,10.2871866226,0,0,0,1489,1103,1467,1523,15.7139997482,749,11.572265625,181.846579117,379.5143420427,,,,,,,,,,,,,,,,
172.917994976,-7.4371576309,1.6234145165,-0.0396824889,-0.3524622917,1.2024883032,10.0084466934,0,0,0,1489,1103,1466,1523,15.7139997482,755,11.865234375,186.450289981,380.6191108548,,,,,,,,,,,,,,,,
173.020486116,-7.4665036202,1.6535789967,-0.0388503931,1.0507657528,1.6368205547,8.4849624634,0,0,0,1490,1105,1466,1523,15.7159996033,776,12.890625,202.589057386,382.3758267785,,,,,,,,,,,,,,,,
173.118376017,-7.4748854637,1.6481156349,-0.0411502086,0.7885824442,1.9122060537,11.1610984802,0,0,0,1490,1106,1467,1523,15.7159996033,755,11.865234375,186.474018731,382.7267013846,,,,,,,,,,,,,,,,
173.221069098,-7.4914970398,1.6461555958,-0.0320682488,0.6951700449,-0.8391289711,9.9289531708,0,0,0,1490,1106,1466,1523,15.720000267,754,11.81640625,185.753909405,383.5146167863,,,,,,,,,,,,,,,,
173.319159031,-7.4848103523,1.6300444603,-0.0249577016,3.1732883453,-1.1011059284,9.1243782044,0,0,0,1490,1106,1467,1523,15.720000267,747,11.474609375,180.380862439,383.0145357533,,,,,,,,,,,,,,,,
173.417393923,-7.4769678116,1.6210799217,-0.0334971026,1.9629145861,1.1543710232,11.3919219971,0,0,0,1490,1108,1466,1523,15.7209997177,727,10.498046875,165.039791958,382.5378080142,,,,,,,,,,,,,,,,
173.519866943,-7.4728822708,1.5975385904,-0.0444317237,0.3208575249,-0.8549810052,9.5327243805,0,0,0,1490,1109,1466,1523,15.7209997177,756,11.9140625,187.300973199,382.0931599726,,,,,,,,,,,,,,,,
173.618602991,-7.4676260948,1.5869929791,-0.0267180372,1.4130718708,0.4128296077,7.694984436,0,0,0,1490,1116,1466,1523,15.7209997177,760,12.109375,190.371480957,381.7220849681,,,,,,,,,,,,,,,,
173.720603943,-7.4432930946,1.5908070803,-0.0362901799,0.9375379682,2.2686831951,8.9138784409,0,0,0,1489,1123,1466,1523,15.7250003815,736,10.9375,171.992191673,380.5738963592,,,,,,,,,,,,,,,,
173.818823099,-7.4081921578,1.5825623274,-0.0398485288,0.6483899951,0.5677612424,9.8595180512,0,0,0,1490,1135,1467,1523,15.7250003815,751,11.669921875,183.509525936,378.7723672347,,,,,,,,,,,,,,,,
173.921756983,-7.3184018135,1.5840270519,-0.0303884149,1.0674798489,0.1885698289,11.0056724548,0,0,0,1490,1156,1467,1524,15.7279996872,784,13.28125,208.887495846,374.3964151162,,,,,,,,,,,,,,,,
174.019520998,-7.1652979851,1.5589116812,-0.0500281714,0.4384878278,0.3585522175,11.0867986679,0,0,0,1489,1180,1466,1523,15.7279996872,743,11.279296875,177.400777722,366.654481982,,,,,,,,,,,,,,,,
174.12183404,-6.9331226349,1.5216097832,-0.0444780253,1.6001675129,-0.8456779122,10.3484277725,0,0,0,1489,1218,1466,1523,15.7279996872,799,14.013671875,220.407026867,354.9135954624,,,,,,,,,,,,,,,,
174.220327139,-6.5597128868,1.4468108416,-0.0319539867,-0.0349134766,1.1228368282,11.7287597656,0,0,0,1489,1415,1467,1523,15.7279996872,819,14.990234375,235.766401561,335.8724304922,,,,,,,,,,,,,,,,
174.322395086,-6.1080832481,1.3517541885,-0.0066535994,1.8544123173,-0.3013673723,9.1544437408,0,0,0,1488,1490,1469,1523,15.7229995728,805,14.306640625,224.943304435,312.7937204542,,,,,,,,,,,,,,,,
174.420995951,-5.5243258476,1.2159487009,0.0152560622,-0.312828511,-1.4159157276,12.0751209259,0,0,0,1486,1490,1562,1523,15.7229995728,980,22.8515625,359.295107425,282.8291890042,,,,,,,,,,,,,,,,
174.523240089,-4.7023067474,1.035045743,0.2928220928,1.7979117632,2.7382795811,13.7407569885,0,0,0,1486,1488,1682,1524,15.7130002975,976,22.65625,355.99766299,241.1884803156,,,,,,,,,,,,,,,,
174.621634007,-3.8354611397,0.8161762357,0.8244837523,1.3741812706,-2.6894114018,20.4489574432,0,0,0,1487,1488,1748,1524,15.7130002975,967,22.216796875,349.092535906,200.353932203,,,,,,,,,,,,,,,,
174.720312119,-3.0623347759,0.6458387971,1.3447337151,-0.5393179655,-0.3866809309,15.5179805756,0,0,0,1486,1490,1783,1523,15.6490001678,971,22.412109375,350.72710337,170.3181640053,,,,,,,,,,,,,,,,
174.822339058,-2.4242229462,0.5004639626,1.8022305965,0.7659479976,0.3939264417,17.219707489,0,0,0,1486,1490,1784,1523,15.6490001678,967,22.216796875,347.670658025,153.0960172057,,,,,,,,,,,,,,,,
174.920732021,-1.8689969778,0.3875433803,2.2957646847,2.0664615631,-2.1767349243,16.6415805817,0,0,0,1486,1490,1784,1523,15.5760002136,969,22.314453125,347.569926641,149.2805669047,,,,,,,,,,,,,,,,
175.023081064,-1.7041324377,0.3622824848,2.4733338356,0.7831268907,1.9860819578,15.2374315262,0,0,0,1486,1490,1784,1523,15.5760002136,967,22.216796875,346.048832871,151.2671166045,,,,,,,,,,,,,,,,
175.121487141,-1.1449321508,0.3027562201,3.2188591957,-0.5801696181,-0.3296050727,13.4169359207,0,0,0,1486,1490,1784,1523,15.5229997635,775,12.841796875,199.343209854,171.4904186863,,,,,,,,,,,,,,,,
175.223917007,-0.9806315899,0.3015630841,3.2943880558,-1.6922781467,-2.2259335518,11.4580249786,0,0,0,1486,1490,1784,1523,15.5229997635,824,15.234375,236.483199522,172.5222541515,,,,,,,,,,,,,,,,
175.321918964,-0.8887936473,0.2964740396,3.2946593761,-0.1809907556,0.3067050874,10.6954803467,0,0,0,1487,1488,1784,1524,15.5220003128,829,15.478515625,240.257524373,171.2646446889,,,,,,,,,,,,,,,,
175.424350023,-0.7633541226,0.2916832268,3.2901344299,-0.208813265,-0.3487218618,10.6424331665,0,0,0,1487,1488,1784,1524,15.5220003128,833,15.673828125,243.289165059,169.5049644413,,,,,,,,,,,,,,,,
175.522887945,-0.7172769308,0.2883048654,3.2937676907,0.4115790129,1.8114293814,10.4282932281,0,0,0,1487,1488,1784,1524,15.5349998474,815,14.794921875,229.83910907,169.1634674743,,,,,,,,,,,,,,,,
